SpectraSuite Data File
++++++++++++++++++++++++++++++++++++
Date: Thu Feb 02 17:07:26 EET 2017
User: optolab
Spectrometer Serial Number: USB4C02475
Spectrometer Channel: 0
Integration Time (usec): 100000
Spectra Averaged: 1
Boxcar Smoothing: 0
Correct for Electrical Dark: No
Strobe/Lamp Enabled: No
Correct for Detector Non-linearity: No
Correct for Stray Light: No
Number of Pixels in Spectrum: 3648
>>>>>Begin Spectral Data<<<<<
344,91	1118,191
345,13	1118,191
345,35	1118,191
345,57	1124,335
345,79	1101,807
346,00	1576,936
346,22	1378,283
346,44	1368,043
346,66	1476,585
346,87	1372,139
347,09	1357,803
347,31	1365,995
347,53	1419,242
347,74	1335,276
347,96	1400,811
348,18	1392,619
348,40	1302,508
348,61	1343,468
348,83	1468,394
349,05	1470,442
349,27	1380,331
349,48	1386,475
349,70	1443,818
349,92	1462,250
350,14	1476,585
350,35	1462,250
350,57	1417,194
350,79	1454,058
351,01	1556,456
351,22	1425,386
351,44	1417,194
351,66	1365,995
351,87	1523,689
352,09	1607,655
352,31	1511,401
352,53	1478,633
352,74	1507,305
352,96	1525,737
353,18	1513,449
353,40	1388,523
353,61	1406,955
353,83	1490,921
354,05	1456,106
354,26	1421,290
354,48	1411,050
354,70	1365,995
354,92	1454,058
355,13	1394,667
355,35	1546,216
355,57	1468,394
355,78	1509,353
356,00	1578,984
356,22	1456,106
356,44	1505,257
356,65	1515,497
356,87	1492,969
357,09	1519,593
357,30	1470,442
357,52	1472,490
357,74	1476,585
357,95	1402,859
358,17	1535,977
358,39	1482,729
358,60	1468,394
358,82	1423,338
359,04	1480,681
359,26	1462,250
359,47	1347,563
359,69	1492,969
359,91	1417,194
360,12	1486,825
360,34	1578,984
360,56	1419,242
360,77	1386,475
360,99	1472,490
361,21	1454,058
361,42	1380,331
361,64	1433,578
361,86	1568,744
362,07	1505,257
362,29	1421,290
362,51	1443,818
362,72	1413,098
362,94	1441,770
363,16	1503,209
363,37	1427,434
363,59	1417,194
363,81	1374,187
364,02	1656,807
364,24	1411,050
364,46	1415,146
364,67	1499,113
364,89	1486,825
365,11	1421,290
365,32	1486,825
365,54	1490,921
365,76	1509,353
365,97	1492,969
366,19	1509,353
366,41	1388,523
366,62	1542,120
366,84	1378,283
367,05	1519,593
367,27	1392,619
367,49	1337,324
367,70	1458,154
367,92	1466,346
368,14	1452,010
368,35	1497,065
368,57	1439,722
368,79	1458,154
369,00	1540,072
369,22	1445,866
369,43	1486,825
369,65	1462,250
369,87	1386,475
370,08	1447,914
370,30	1411,050
370,51	1413,098
370,73	1409,002
370,95	1449,962
371,16	1413,098
371,38	1447,914
371,60	1452,010
371,81	1531,881
372,03	1486,825
372,24	1404,907
372,46	1411,050
372,68	1386,475
372,89	1497,065
373,11	1482,729
373,32	1591,272
373,54	1497,065
373,76	1441,770
373,97	1392,619
374,19	1462,250
374,40	1585,128
374,62	1406,955
374,84	1509,353
375,05	1392,619
375,27	1542,120
375,48	1476,585
375,70	1368,043
375,92	1435,626
376,13	1398,763
376,35	1398,763
376,56	1443,818
376,78	1523,689
376,99	1382,379
377,21	1437,674
377,43	1458,154
377,64	1490,921
377,86	1474,538
378,07	1466,346
378,29	1521,641
378,51	1525,737
378,72	1380,331
378,94	1447,914
379,15	1427,434
379,37	1411,050
379,58	1562,600
379,80	1460,202
380,01	1495,017
380,23	1431,530
380,45	1433,578
380,66	1552,360
380,88	1443,818
381,09	1449,962
381,31	1474,538
381,52	1443,818
381,74	1445,866
381,95	1474,538
382,17	1435,626
382,39	1519,593
382,60	1402,859
382,82	1396,715
383,03	1425,386
383,25	1443,818
383,46	1458,154
383,68	1409,002
383,89	1509,353
384,11	1454,058
384,32	1388,523
384,54	1355,755
384,76	1441,770
384,97	1441,770
385,19	1359,851
385,40	1417,194
385,62	1454,058
385,83	1488,873
386,05	1337,324
386,26	1396,715
386,48	1392,619
386,69	1386,475
386,91	1441,770
387,12	1435,626
387,34	1466,346
387,55	1306,604
387,77	1355,755
387,98	1406,955
388,20	1470,442
388,41	1529,833
388,63	1480,681
388,84	1411,050
389,06	1482,729
389,27	1458,154
389,49	1511,401
389,70	1456,106
389,92	1441,770
390,13	1402,859
390,35	1484,777
390,56	1486,825
390,78	1437,674
390,99	1417,194
391,21	1552,360
391,42	1531,881
391,64	1390,571
391,85	1398,763
392,07	1353,707
392,28	1365,995
392,50	1392,619
392,71	1304,556
392,93	1413,098
393,14	1431,530
393,36	1521,641
393,57	1437,674
393,79	1472,490
394,00	1505,257
394,22	1380,331
394,43	1376,235
394,65	1464,298
394,86	1402,859
395,08	1318,892
395,29	1394,667
395,50	1470,442
395,72	1333,228
395,93	1476,585
396,15	1464,298
396,36	1411,050
396,58	1382,379
396,79	1435,626
397,01	1339,372
397,22	1433,578
397,44	1419,242
397,65	1425,386
397,87	1349,611
398,08	1458,154
398,29	1433,578
398,51	1513,449
398,72	1353,707
398,94	1433,578
399,15	1464,298
399,37	1476,585
399,58	1386,475
399,80	1368,043
400,01	1349,611
400,22	1406,955
400,44	1488,873
400,65	1533,929
400,87	1396,715
401,08	1517,545
401,30	1380,331
401,51	1486,825
401,72	1474,538
401,94	1351,659
402,15	1470,442
402,37	1396,715
402,58	1390,571
402,80	1390,571
403,01	1439,722
403,22	1513,449
403,44	1445,866
403,65	1466,346
403,87	1378,283
404,08	1480,681
404,30	1382,379
404,51	1484,777
404,72	1357,803
404,94	1497,065
405,15	1476,585
405,37	1474,538
405,58	1390,571
405,79	1380,331
406,01	1570,792
406,22	1464,298
406,44	1400,811
406,65	1509,353
406,86	1447,914
407,08	1460,202
407,29	1492,969
407,51	1527,785
407,72	1630,183
407,93	1523,689
408,15	1495,017
408,36	1417,194
408,58	1544,168
408,79	1578,984
409,00	1591,272
409,22	1560,552
409,43	1529,833
409,64	1679,334
409,86	1519,593
410,07	1585,128
410,29	1595,368
410,50	1617,895
410,71	1615,847
410,93	1595,368
411,14	1585,128
411,35	1689,574
411,57	1628,135
411,78	1630,183
412,00	1652,711
412,21	1855,460
412,42	1740,773
412,64	1716,198
412,85	1673,190
413,06	1755,109
413,28	1773,541
413,49	1746,917
413,70	1834,980
413,92	1791,973
414,13	1753,061
414,34	1871,843
414,56	1826,788
414,77	1935,330
414,98	1898,467
415,20	1886,179
415,41	1931,235
415,63	1953,762
415,84	2025,441
416,05	2054,113
416,27	2045,921
416,48	2109,408
416,69	2041,825
416,91	2111,456
417,12	2205,662
417,33	2265,053
417,55	2267,101
417,76	2351,068
417,97	2324,445
418,19	2371,548
418,40	2365,404
418,61	2508,762
418,83	2471,898
419,04	2637,784
419,25	2648,024
419,46	2537,433
419,68	2711,511
419,89	2863,060
420,10	2801,621
420,32	2887,636
420,53	2959,315
420,74	3033,042
420,96	3022,802
421,17	3043,282
421,38	3217,359
421,60	3221,455
421,81	3368,909
422,02	3440,588
422,23	3489,739
422,45	3430,348
422,66	3682,248
422,87	3749,831
423,09	3778,502
423,30	3889,093
423,51	4128,705
423,73	4007,875
423,94	4179,904
424,15	4196,288
424,36	4333,502
424,58	4411,325
424,79	4513,723
425,00	4614,074
425,22	4777,911
425,43	4802,487
425,64	4685,752
425,85	4956,084
426,07	5242,800
426,28	5164,977
426,49	5320,623
426,71	5752,744
426,92	5848,999
427,13	5879,718
427,34	6164,386
427,56	6176,674
427,77	6371,231
427,98	6449,054
428,19	6670,234
428,41	6606,747
428,62	6893,463
428,83	7415,695
429,04	7239,570
429,26	7722,890
429,47	7610,252
429,68	7925,639
429,89	8034,181
430,11	8384,384
430,32	8161,155
430,53	8705,915
430,74	8642,428
430,96	9058,166
431,17	8935,288
431,38	9328,498
431,59	9713,516
431,81	9885,545
432,02	10168,165
432,23	10422,113
432,44	10544,991
432,66	11079,511
432,87	11059,031
433,08	11272,020
433,29	11710,285
433,51	11722,573
433,72	12648,255
433,93	12054,344
434,14	12814,140
434,35	13092,664
434,57	13463,347
434,78	13825,837
434,99	14090,025
435,20	14245,671
435,42	14833,438
435,63	15095,578
435,84	15234,840
436,05	15611,666
436,26	16187,145
436,48	16461,573
436,69	17049,340
436,90	17510,133
437,11	18015,981
437,32	18353,896
437,54	19177,179
437,75	19410,648
437,96	19568,341
438,17	20182,732
438,38	20614,853
438,60	21452,473
438,81	21530,295
439,02	22199,981
439,23	22464,169
439,44	23342,748
439,66	23264,925
439,87	23752,342
440,08	24620,680
440,29	24510,090
440,50	24835,717
440,72	25683,576
440,93	26226,288
441,14	26469,996
441,35	27381,342
441,56	27709,017
441,77	29400,639
441,99	29193,795
442,20	29634,108
442,41	29607,484
442,62	30379,568
442,83	30694,956
443,04	31149,605
443,26	31415,841
443,47	31657,501
443,68	32249,364
443,89	32624,142
444,10	33035,784
444,31	33089,031
444,53	32617,998
444,74	33957,370
444,95	34108,920
445,16	34399,731
445,37	33940,986
445,58	35460,579
445,80	34166,263
446,01	35343,845
446,22	35352,037
446,43	34921,963
446,64	34858,476
446,85	35098,088
447,06	35343,845
447,28	35149,288
447,49	34926,059
447,70	34514,417
447,91	34622,960
448,12	34194,934
448,33	35530,210
448,54	34924,011
448,76	34612,720
448,97	34737,646
449,18	33648,127
449,39	32894,474
449,60	33789,436
449,81	33664,510
450,02	33355,267
450,23	33439,234
450,45	33252,869
450,66	32843,275
450,87	33318,404
451,08	32501,264
451,29	32488,976
451,50	31792,667
451,71	32161,301
451,92	31839,770
452,13	30635,565
452,35	31870,490
452,56	31419,937
452,77	31346,210
452,98	31030,822
453,19	30027,318
453,40	31489,568
453,61	30668,332
453,82	31417,889
454,03	30674,476
454,25	30656,044
454,46	30162,484
454,67	30252,594
454,88	31227,428
455,09	31399,457
455,30	30414,384
455,51	30727,723
455,72	31036,966
455,93	31604,254
456,14	31976,984
456,35	31972,888
456,56	31811,099
456,78	32337,427
456,99	32284,179
457,20	33046,024
457,41	33562,112
457,62	33883,643
457,83	33740,285
458,04	33607,167
458,25	35149,288
458,46	35327,461
458,67	35833,309
458,88	35841,501
459,09	36785,615
459,30	36918,733
459,51	37670,337
459,73	38063,547
459,94	38639,026
460,15	39263,657
460,36	39818,656
460,57	41852,289
460,78	41856,385
460,99	41676,164
461,20	42546,551
461,41	42468,728
461,62	43015,536
461,83	44148,062
462,04	45000,017
462,25	44727,638
462,46	45598,024
462,67	47545,642
462,88	46914,868
463,09	46822,710
463,30	47377,709
463,51	49106,195
463,72	48641,306
463,93	48633,114
464,15	48438,557
464,36	50676,987
464,57	51102,964
464,78	50881,784
464,99	50806,009
465,20	51733,739
465,41	52071,653
465,62	52196,580
465,83	52997,335
466,04	51918,056
466,25	52847,834
466,46	53056,726
466,67	52632,797
466,88	52657,372
467,09	52831,450
467,30	54156,486
467,51	53300,435
467,72	54459,585
467,93	51432,687
468,14	52374,753
468,35	53929,161
468,56	53673,165
468,77	53816,523
468,98	53202,132
469,19	52858,073
469,40	52534,494
469,61	52133,092
469,82	52884,697
470,03	52282,594
470,24	51686,635
470,45	52831,450
470,66	51375,344
470,87	52436,192
471,08	51420,399
471,29	51338,481
471,50	50818,297
471,71	51023,093
471,92	50746,618
472,13	50078,980
472,34	49845,511
472,55	49810,696
472,76	48809,239
472,97	48899,350
473,18	48866,582
473,39	48653,594
473,60	48975,125
473,81	49265,936
474,01	47521,067
474,22	48024,867
474,43	47772,967
474,64	47539,499
474,85	46318,909
475,06	47195,440
475,27	46806,326
475,48	46388,540
475,69	46138,688
475,90	46230,847
476,11	45251,918
476,32	45555,017
476,53	45360,460
476,74	44864,851
476,95	44942,674
477,16	45362,508
477,37	44975,442
477,58	45788,485
477,79	44313,948
478,00	44911,955
478,21	44825,940
478,41	44479,833
478,62	44842,324
478,83	44533,080
479,04	45331,788
479,25	44629,335
479,46	44211,549
479,67	44062,048
479,88	44303,708
480,09	44283,228
480,30	44725,590
480,51	44502,361
480,72	44746,069
480,93	44399,962
481,14	45208,910
481,34	44954,962
481,55	44754,261
481,76	45016,401
481,97	45206,862
482,18	46038,338
482,39	45389,131
482,60	45354,316
482,81	45432,139
483,02	46345,533
483,23	46007,618
483,44	46382,396
483,65	46255,422
483,85	46054,721
484,06	46396,732
484,27	47197,488
484,48	46456,123
484,69	47170,864
484,90	46986,547
485,11	47516,971
485,32	47211,824
485,53	47656,233
485,73	47764,775
485,94	48209,184
486,15	47580,458
486,36	47963,428
486,57	48758,040
486,78	48555,291
486,99	48803,095
487,20	48917,782
487,41	49046,804
487,61	49646,858
487,82	49270,032
488,03	49536,268
488,24	49399,054
488,45	49681,674
488,66	50072,836
488,87	49808,648
489,08	49900,807
489,28	50347,264
489,49	50930,935
489,70	50908,407
489,91	51076,341
490,12	51571,949
490,33	51490,030
490,54	51158,259
490,74	51891,432
490,95	52038,886
491,16	52147,428
491,37	52188,388
491,58	52712,668
491,79	52561,118
492,00	52751,579
492,20	52792,538
492,41	52815,066
492,62	53415,121
492,83	53441,745
493,04	53255,379
493,25	53667,021
493,45	53445,840
493,66	53869,770
493,87	53492,944
494,08	54295,748
494,29	54185,157
494,50	54033,608
494,70	54482,113
494,91	54430,913
495,12	54287,556
495,33	54725,821
495,54	55200,950
495,75	55035,064
495,95	55256,245
496,16	55254,197
496,37	55659,695
496,58	54467,777
496,79	54953,145
496,99	54836,411
497,20	55123,127
497,41	55364,787
497,62	55696,558
497,83	55690,414
498,04	55764,141
498,24	55166,134
498,45	55704,750
498,66	55340,212
498,87	55639,215
499,08	55495,857
499,28	55768,237
499,49	55600,304
499,70	55573,680
499,91	55766,189
500,12	55831,724
500,32	55755,949
500,53	55690,414
500,74	55461,042
500,95	55522,481
501,15	55635,119
501,36	55368,883
501,57	55334,068
501,78	56026,281
501,99	54824,123
502,19	55065,784
502,40	54990,009
502,61	54719,677
502,82	55356,595
503,02	54738,109
503,23	54695,101
503,44	54832,315
503,65	54867,131
503,86	54410,434
504,06	54949,050
504,27	54338,755
504,48	54867,131
504,69	54654,142
504,89	54645,950
505,10	54355,139
505,31	54752,445
505,52	54217,925
505,72	53877,962
505,93	54156,486
506,14	54070,471
506,35	53345,490
506,55	53720,268
506,76	53466,320
506,97	53185,748
507,18	53726,412
507,38	53241,044
507,59	52817,114
507,80	53200,084
508,01	53062,870
508,21	53165,269
508,42	52991,191
508,63	52823,258
508,84	52745,435
509,04	52630,749
509,25	52935,896
509,46	53097,686
509,67	52751,579
509,87	52360,417
510,08	52344,033
510,29	52258,019
510,49	52346,081
510,70	51856,617
510,91	51627,244
511,12	51989,735
511,32	51653,868
511,53	51670,252
511,74	51600,621
511,94	51596,525
512,15	52327,650
512,36	51209,459
512,57	51870,952
512,77	51330,289
512,98	51795,178
513,19	51287,281
513,39	52053,222
513,60	51399,920
513,81	51852,521
514,01	51668,204
514,22	51432,687
514,43	51473,647
514,64	51006,710
514,84	50869,496
515,05	51283,185
515,26	50885,880
515,46	51211,507
515,67	50980,086
515,88	51508,462
516,08	51483,886
516,29	51643,628
516,50	51248,370
516,70	51162,355
516,91	51862,761
517,12	51279,090
517,32	51926,248
517,53	51698,923
517,74	51692,779
517,95	51555,565
518,15	51533,038
518,36	51735,787
518,57	51739,882
518,77	51137,780
518,98	51735,787
519,19	52088,037
519,39	51318,001
519,60	51535,086
519,80	52090,085
520,01	51383,536
520,22	51692,779
520,42	51950,823
520,63	51619,052
520,84	51410,160
521,04	51752,170
521,25	51539,182
521,46	51950,823
521,66	51965,159
521,87	51664,108
522,08	51354,864
522,28	51332,337
522,49	51750,122
522,70	51436,783
522,90	51954,919
523,11	51487,982
523,31	51262,706
523,52	52301,026
523,73	50984,182
523,93	51463,407
524,14	51223,794
524,35	51805,418
524,55	51082,485
524,76	51105,012
524,97	51692,779
525,17	51150,068
525,38	51170,547
525,58	51207,411
525,79	51404,016
526,00	51231,986
526,20	51248,370
526,41	51123,444
526,61	51428,591
526,82	51000,566
527,03	51283,185
527,23	51774,698
527,44	50885,880
527,64	51242,226
527,85	51102,964
528,06	51377,392
528,26	51281,138
528,47	51004,662
528,68	50705,658
528,88	51139,828
529,09	50924,791
529,29	50214,146
529,50	50986,230
529,70	50701,562
529,91	50910,455
530,12	50703,610
530,32	51248,370
530,53	50777,337
530,73	50922,743
530,94	50844,920
531,15	50990,326
531,35	51238,130
531,56	50883,832
531,76	50896,119
531,97	51215,602
532,17	51289,329
532,38	51487,982
532,59	51082,485
532,79	51447,023
533,00	50730,234
533,20	51473,647
533,41	50666,747
533,61	51043,573
533,82	51387,632
534,03	50932,983
534,23	51227,890
534,44	50900,215
534,64	51098,868
534,85	50949,367
535,05	50269,441
535,26	51211,507
535,46	50846,968
535,67	50973,942
535,88	50945,271
536,08	51059,957
536,29	50984,182
536,49	50894,071
536,70	50818,297
536,90	51043,573
537,11	51260,658
537,31	51436,783
537,52	51111,156
537,72	50992,374
537,93	51377,392
538,13	51819,753
538,34	51565,805
538,55	51217,650
538,75	51965,159
538,96	51754,218
539,16	51520,750
539,37	51733,739
539,57	51643,628
539,78	51770,602
539,98	51913,960
540,19	51967,207
540,39	51907,816
540,60	51633,388
540,80	51666,156
541,01	51846,377
541,21	51617,004
541,42	51963,111
541,62	51719,403
541,83	51518,702
542,03	51838,185
542,24	51520,750
542,44	51649,772
542,65	51381,488
542,85	52079,845
543,06	51889,384
543,26	51459,311
543,47	52475,103
543,67	51447,023
543,88	52042,982
544,08	51608,812
544,29	51481,838
544,49	52446,432
544,70	52094,181
544,90	51657,964
545,11	51948,775
545,31	51672,300
545,52	52020,454
545,72	52212,963
545,93	51930,344
546,13	52188,388
546,34	52391,137
546,54	52593,885
546,75	52925,656
546,95	52221,155
547,15	52358,369
547,36	52301,026
547,56	53185,748
547,77	53109,974
547,97	53126,357
548,18	52507,871
548,38	52944,088
548,59	52966,616
548,79	52776,155
549,00	52864,217
549,20	53005,527
549,41	52833,498
549,61	53105,878
549,81	53105,878
550,02	52915,417
550,22	53611,726
550,43	52767,963
550,63	52841,690
550,84	52835,546
551,04	52778,203
551,25	53437,649
551,45	53069,014
551,65	53255,379
551,86	53406,929
552,06	53228,756
552,27	53021,911
552,47	53525,711
552,68	53337,298
552,88	53308,627
553,08	53220,564
553,29	53456,080
553,49	53683,405
553,70	53800,139
553,90	53365,970
554,11	53132,501
554,31	53791,947
554,51	53701,837
554,72	54078,663
554,92	53986,504
555,13	54013,128
555,33	54373,570
555,53	54310,083
555,74	53820,619
555,94	54512,832
556,15	54396,098
556,35	54611,135
556,56	54357,187
556,76	54750,397
556,96	54799,548
557,17	54422,722
557,37	54432,961
557,58	54863,035
557,78	54768,828
557,98	54357,187
558,19	54494,400
558,39	54394,050
558,59	54297,795
558,80	54510,784
559,00	54602,943
559,21	54222,021
559,41	55252,149
559,61	55319,732
559,82	54668,478
560,02	54961,337
560,23	54707,389
560,43	54875,323
560,63	54889,658
560,84	54832,315
561,04	54951,098
561,24	54947,002
561,45	55633,071
561,65	54957,241
561,85	54947,002
562,06	55133,367
562,26	55233,717
562,47	54574,271
562,67	55420,082
562,87	55422,130
563,08	55205,046
563,28	54865,083
563,48	55164,086
563,69	55329,972
563,89	54973,625
564,09	55067,832
564,30	55196,854
564,50	55485,617
564,70	55305,396
564,91	55157,942
565,11	55975,082
565,31	55311,540
565,52	55327,924
565,72	55626,927
565,92	55067,832
566,13	55993,514
566,33	55717,038
566,53	55553,200
566,74	56071,336
566,94	55383,219
567,14	55502,001
567,35	55776,429
567,55	55735,470
567,75	56173,735
567,96	56452,259
568,16	55731,374
568,36	56421,539
568,57	55628,975
568,77	56136,871
568,97	56093,864
569,18	56310,949
569,38	56433,827
569,58	56038,569
569,79	56179,879
569,99	56648,864
570,19	56245,414
570,39	56482,978
570,60	56169,639
570,80	56757,406
571,00	56413,347
571,21	56140,967
571,41	56296,613
571,61	56630,432
571,82	56722,590
572,02	56683,679
572,22	56679,583
572,42	56605,856
572,63	56941,723
572,83	56683,679
573,03	56192,167
573,24	56536,225
573,44	55864,492
573,64	56507,554
573,84	56208,550
574,05	56876,188
574,25	56607,904
574,45	56956,059
574,66	56167,591
574,86	56614,048
575,06	56525,985
575,26	56038,569
575,47	56679,583
575,67	56560,801
575,87	56655,008
576,07	56863,900
576,28	56769,694
576,48	56650,912
576,68	56671,391
576,88	56054,953
577,09	56960,155
577,29	56898,716
577,49	56345,764
577,69	56968,347
577,90	56196,262
578,10	56884,380
578,30	56945,819
578,50	57375,892
578,71	56829,085
578,91	56714,399
579,11	56923,291
579,31	56741,022
579,52	56454,307
579,72	56884,380
579,92	56812,701
580,12	56947,867
580,33	56689,823
580,53	57406,612
580,73	56396,963
580,93	56788,125
581,13	56505,506
581,34	57156,760
581,54	56726,686
581,74	56650,912
581,94	56935,579
582,15	56652,960
582,35	55919,787
582,55	56417,443
582,75	57248,918
582,95	56882,332
583,16	56937,627
583,36	56757,406
583,56	56644,768
583,76	56843,421
583,96	56988,826
584,17	56642,720
584,37	57072,793
584,57	56388,772
584,77	56888,476
584,97	57128,088
585,18	56843,421
585,38	56831,133
585,58	57011,354
585,78	56634,528
585,98	56685,727
586,19	57377,940
586,39	57574,545
586,59	56757,406
586,79	57169,048
586,99	57310,358
587,20	57427,092
587,40	57111,705
587,60	56970,395
587,80	57429,140
588,00	57179,288
588,20	57441,428
588,41	57296,022
588,61	57185,431
588,81	57449,619
589,01	56822,941
589,21	57210,007
589,41	57709,711
589,62	57367,701
589,82	57250,966
590,02	57343,125
590,22	57293,974
590,42	57369,749
590,62	57236,631
590,83	57353,365
591,03	57795,726
591,23	57646,224
591,43	57500,819
591,63	57386,132
591,83	57875,597
592,03	57414,804
592,24	57832,590
592,44	57496,723
592,64	58061,962
592,84	57533,586
593,04	57998,475
593,24	57775,246
593,44	57777,294
593,65	58014,859
593,85	58057,866
594,05	58197,128
594,25	57691,280
594,45	58147,977
594,65	58180,744
594,85	58166,408
595,06	57584,785
595,26	57953,420
595,46	57726,095
595,66	58242,183
595,86	58334,342
596,06	58039,434
596,26	57724,047
596,46	58145,929
596,66	57756,815
596,87	57885,837
597,07	57875,597
597,27	57742,479
597,47	57402,516
597,67	57982,091
597,87	57945,228
598,07	57212,055
598,27	57128,088
598,47	56978,587
598,67	57216,151
598,88	57150,616
599,08	56749,214
599,28	56712,351
599,48	56607,904
599,68	56220,838
599,88	56454,307
600,08	56601,760
600,28	56810,653
600,48	56532,129
600,68	56167,591
600,88	56134,823
601,09	55887,019
601,29	55983,274
601,49	55741,613
601,69	55739,565
601,89	55674,030
602,09	55522,481
602,29	55659,695
602,49	55489,713
602,69	55135,415
602,89	55121,079
603,09	55448,754
603,29	55200,950
603,49	54701,245
603,69	54975,673
603,90	54682,814
604,10	55340,212
604,30	54246,596
604,50	55114,935
604,70	54549,696
604,90	55094,455
605,10	55096,503
605,30	54787,260
605,50	54748,349
605,70	54254,788
605,90	54783,164
606,10	54693,053
606,30	53841,098
606,50	54172,869
606,70	54330,563
606,90	54219,973
607,10	54402,242
607,30	53982,408
607,50	54238,404
607,70	53988,552
607,90	54619,327
608,10	53613,774
608,30	54361,282
608,50	54430,913
608,70	54166,725
608,90	54070,471
609,11	53882,058
609,31	53920,969
609,51	54443,201
609,71	53697,741
609,91	53908,681
610,11	54187,205
610,31	53746,892
610,51	53947,593
610,71	53624,014
610,91	53531,855
611,11	53660,877
611,31	53595,342
611,51	53660,877
611,71	52991,191
611,91	53091,542
612,11	53421,265
612,31	53103,830
612,51	53404,881
612,71	52653,277
612,91	53075,158
613,11	52819,162
613,31	53132,501
613,51	52782,299
613,71	52858,073
613,91	52894,937
614,11	52620,509
614,31	53257,427
614,50	52630,749
614,70	53355,730
614,90	52608,221
615,10	53368,018
615,30	52798,682
615,50	52837,594
615,70	52856,025
615,90	52428,000
616,10	52567,262
616,30	52907,225
616,50	53544,143
616,70	52669,660
616,90	53144,789
617,10	52722,908
617,30	52800,730
617,50	52948,184
617,70	52622,557
617,90	52870,361
618,10	53050,582
618,30	53069,014
618,50	52948,184
618,70	53253,331
618,90	52813,018
619,10	53877,962
619,30	52593,885
619,49	53040,343
619,69	53026,007
619,89	53048,535
620,09	52882,649
620,29	53064,918
620,49	52894,937
620,69	53224,660
620,89	52896,985
621,09	53853,386
621,29	53218,516
621,49	53581,006
621,69	53804,235
621,89	53060,822
622,09	53705,932
622,29	53857,482
622,48	53607,630
622,68	53750,988
622,88	53877,962
623,08	54187,205
623,28	54158,534
623,48	53720,268
623,68	53691,597
623,88	54117,574
624,08	53775,563
624,28	54207,685
624,48	54351,043
624,67	54144,198
624,87	54820,028
625,07	54676,670
625,27	54633,662
625,47	54482,113
625,67	54553,792
625,87	54893,754
626,07	54973,625
626,27	55127,223
626,47	55422,130
626,66	55770,285
626,86	55606,448
627,06	55977,130
627,26	55950,506
627,46	56296,613
627,66	55569,584
627,86	56024,233
628,06	55938,218
628,25	56644,768
628,45	56437,923
628,65	56075,432
628,85	56255,654
629,05	56024,233
629,25	56392,868
629,45	55848,108
629,65	56321,189
629,84	55891,115
630,04	55975,082
630,24	55731,374
630,44	55600,304
630,64	55301,300
630,84	54850,747
631,04	54975,673
631,23	54645,950
631,43	54541,504
631,63	53030,103
631,83	53537,999
632,03	52790,490
632,23	52258,019
632,42	51549,421
632,62	51322,097
632,82	50668,795
633,02	50027,781
633,22	49679,626
633,42	49098,003
633,62	48551,195
633,81	47938,852
634,01	47088,945
634,21	47148,337
634,41	46259,518
634,61	46079,297
634,80	45303,117
635,00	45245,774
635,20	43797,860
635,40	43924,834
635,60	43072,879
635,80	42890,610
635,99	41940,352
636,19	42018,175
636,39	41983,359
636,59	41166,220
636,79	41172,364
636,98	40488,342
637,18	40103,324
637,38	39863,712
637,58	39433,638
637,78	39173,546
637,97	38485,429
638,17	38258,104
638,37	38227,385
638,57	37772,736
638,77	37428,677
638,96	37084,618
639,16	36801,998
639,36	37072,330
639,56	36437,460
639,76	36095,449
639,95	35935,708
640,15	35634,656
640,35	35081,705
640,55	35139,048
640,75	34981,354
640,94	35089,897
641,14	34440,690
641,34	34485,746
641,54	33768,957
641,73	34143,735
641,93	33637,887
642,13	33031,688
642,33	32779,788
642,53	32824,843
642,72	32820,747
642,92	32783,884
643,12	32060,951
643,32	32314,899
643,51	31942,169
643,71	31909,401
643,91	31542,815
644,11	31141,413
644,30	31198,756
644,50	30561,838
644,70	30688,812
644,90	30352,945
645,09	30234,163
645,29	30121,524
645,49	30023,222
645,69	29822,521
645,88	29693,499
646,08	29541,949
646,28	29386,304
646,48	29087,300
646,67	29441,599
646,87	29009,477
647,07	28814,920
647,26	28733,002
647,46	28343,888
647,66	28286,544
647,86	28290,640
648,05	28249,681
648,25	28096,083
648,45	27729,497
648,65	28061,268
648,84	27999,829
649,04	27428,445
649,24	27883,095
649,43	27240,032
649,63	27698,777
649,83	27500,124
650,03	27328,095
650,22	27395,678
650,42	27094,627
650,62	27125,346
650,81	26660,457
651,01	26961,509
651,21	27104,866
651,40	26644,073
651,60	26582,634
651,80	26349,166
652,00	26465,900
652,19	26293,871
652,39	26537,579
652,59	26123,889
652,78	26257,007
652,98	26084,978
653,18	25763,447
653,37	25788,022
653,57	25785,975
653,77	25728,631
653,96	25429,628
654,16	25663,096
654,36	25407,100
654,55	25640,569
654,75	25091,713
654,95	25308,798
655,14	25030,274
655,34	25218,687
655,54	25032,322
655,73	24864,389
655,93	24897,156
656,13	24848,005
656,32	24604,297
656,52	24454,795
656,72	24845,957
656,91	24501,898
657,11	25038,466
657,31	24848,005
657,50	25024,130
657,70	24854,149
657,90	24782,470
658,09	24823,429
658,29	24929,924
658,49	24706,695
658,68	24884,868
658,88	24790,662
659,07	24747,654
659,27	24837,765
659,47	24809,093
659,66	24471,179
659,86	24755,846
660,06	24987,267
660,25	24485,514
660,45	24878,724
660,64	24692,359
660,84	24757,894
661,04	24696,455
661,23	25140,864
661,43	24583,817
661,63	25091,713
661,82	24938,115
662,02	24819,333
662,21	24815,237
662,41	24671,880
662,61	25196,160
662,80	24608,392
663,00	24952,451
663,19	24692,359
663,39	25167,488
663,59	25054,850
663,78	25050,754
663,98	25265,790
664,17	25353,853
664,37	25060,994
664,57	25185,920
664,76	25437,820
664,96	25347,709
665,15	25323,134
665,35	25388,669
665,55	25276,030
665,74	25550,458
665,94	25554,554
666,13	25917,045
666,33	25527,930
666,53	25726,583
666,72	25591,418
666,92	26076,786
667,11	25861,749
667,31	26132,081
667,50	26093,170
667,70	26170,993
667,90	26408,557
668,09	26218,096
668,29	26340,974
668,48	26461,804
668,68	26545,771
668,87	26648,169
669,07	26934,885
669,26	26832,487
669,46	26826,343
669,66	27178,593
669,85	27182,689
670,05	27203,169
670,24	26895,974
670,44	27338,335
670,63	27598,427
670,83	27567,707
671,02	27487,837
671,22	27715,161
671,42	27780,696
671,61	27321,951
671,81	27905,622
672,00	28294,736
672,20	28298,832
672,39	28563,020
672,59	28599,884
672,78	28483,149
672,98	28501,581
673,17	28896,839
673,37	28669,515
673,56	29525,565
673,76	29527,613
673,95	29335,104
674,15	29552,189
674,34	29994,550
674,54	29929,015
674,73	30090,805
674,93	30193,203
675,13	30619,181
675,32	30502,447
675,52	30543,406
675,71	31094,310
675,91	31387,169
676,10	31116,837
676,30	31096,358
676,49	31542,815
676,69	31942,169
676,88	32382,482
677,08	32562,703
677,27	32683,533
677,47	32804,363
677,66	32968,201
677,86	33267,204
678,05	33404,418
678,24	33496,577
678,44	34414,067
678,63	34180,598
678,83	34422,259
679,02	34557,425
679,22	34487,794
679,41	35724,767
679,61	35032,553
679,80	35947,995
680,00	35880,412
680,19	36263,383
680,39	36601,298
680,58	36539,858
680,78	36980,172
680,97	37303,751
681,17	37393,861
681,36	37537,219
681,56	37727,680
681,75	37975,485
681,94	38536,628
682,14	38667,698
682,33	39021,997
682,53	39146,923
682,72	39364,007
682,92	39607,716
683,11	40301,977
683,31	40281,497
683,50	40504,726
683,69	41076,109
683,89	41110,925
684,08	41729,411
684,28	41534,854
684,47	42126,717
684,67	42685,813
684,86	42710,388
685,06	42753,396
685,25	43810,148
685,44	43658,598
685,64	44447,066
685,83	44373,339
686,03	45040,977
686,22	45385,035
686,42	45595,976
686,61	46312,765
686,80	46279,998
687,00	46656,824
687,19	47426,860
687,39	47330,606
687,58	47652,137
687,77	48413,981
687,97	48381,214
688,16	48373,022
688,36	48442,653
688,55	48577,819
688,74	49579,275
688,94	49284,368
689,13	50083,076
689,33	50500,861
689,52	50916,599
689,71	50713,850
689,91	51979,495
690,10	51518,702
690,30	52280,546
690,49	52845,786
690,68	52833,498
690,88	53044,439
691,07	52987,095
691,27	53601,486
691,46	53210,324
691,65	53159,125
691,85	53456,080
692,04	53050,582
692,23	53109,974
692,43	53021,911
692,62	52557,022
692,82	52366,561
693,01	52741,339
693,20	52096,229
693,40	52501,727
693,59	51819,753
693,78	51121,396
693,98	51557,613
694,17	50560,252
694,36	50578,684
694,56	49913,094
694,75	49327,375
694,94	49294,608
695,14	48194,849
695,33	47844,646
695,53	46710,071
695,72	46054,721
695,91	45540,681
696,11	44842,324
696,30	43906,402
696,49	43107,694
696,69	41700,740
696,88	41643,397
697,07	40678,803
697,27	39771,553
697,46	38501,812
697,65	37432,773
697,85	36316,630
698,04	35972,571
698,23	34981,354
698,43	34137,591
698,62	33246,725
698,81	32407,058
699,01	31247,907
699,20	30473,775
699,39	29695,547
699,58	28589,644
699,78	28085,843
699,97	27434,589
700,16	26654,313
700,36	25796,214
700,55	24968,835
700,74	24678,023
700,94	24104,592
701,13	22931,106
701,32	22474,409
701,52	21862,066
701,71	21278,395
701,90	20430,536
702,09	20133,581
702,29	19584,725
702,48	19361,497
702,67	18466,534
702,87	17889,007
703,06	17645,299
703,25	17075,963
703,44	16545,540
703,64	16170,761
703,83	15564,562
704,02	15509,267
704,22	15171,352
704,41	14559,010
704,60	14397,220
704,79	14085,929
704,99	13637,424
705,18	13276,981
705,37	13154,103
705,56	12629,823
705,76	12564,288
705,95	12205,894
706,14	11837,259
706,33	11640,654
706,53	11349,843
706,72	11114,326
706,91	11001,688
707,11	10796,891
707,30	10372,962
707,49	10303,331
707,68	10293,091
707,88	9703,276
708,07	9733,995
708,26	9570,158
708,45	9211,763
708,64	9113,461
708,84	8976,247
709,03	8816,505
709,22	8630,140
709,41	8552,318
709,61	8298,369
709,80	8202,115
709,99	8091,525
710,18	7976,838
710,38	7880,584
710,57	7794,569
710,76	7563,149
710,95	7364,496
711,14	7499,662
711,34	7239,570
711,53	7061,396
711,72	6991,765
711,91	6821,784
712,11	6948,758
712,30	6668,186
712,49	6649,755
712,68	6487,965
712,87	6332,319
713,07	6334,367
713,26	6207,393
713,45	6313,888
713,64	6023,076
713,83	5984,165
714,03	5910,438
714,22	5803,943
714,41	5722,025
714,60	5611,434
714,79	5613,482
714,99	5621,674
715,18	5402,542
715,37	5519,276
715,56	5443,501
715,75	5394,350
715,94	5427,117
716,14	5191,601
716,33	5212,080
716,52	5128,114
716,71	5121,970
716,90	4970,420
717,10	5066,675
717,29	4911,029
717,48	5035,955
717,67	4894,645
717,86	4837,302
718,05	4730,808
718,24	4728,760
718,44	4569,018
718,63	4708,280
718,82	4665,273
719,01	4581,306
719,20	4487,100
719,39	4435,900
719,59	4407,229
719,78	4337,598
719,97	4378,557
720,16	4364,221
720,35	4319,166
720,54	4302,782
720,73	4243,391
720,93	4151,233
721,12	4206,528
721,31	4132,801
721,50	4040,642
721,69	4095,938
721,88	3864,517
722,07	4089,794
722,27	3897,285
722,46	3991,491
722,65	3895,237
722,84	3825,606
723,03	3882,949
723,22	3821,510
723,41	3739,591
723,60	3897,285
723,79	3698,632
723,99	3696,584
724,18	3692,488
724,37	3633,097
724,56	3706,823
724,75	3641,288
724,94	3633,097
725,13	3770,310
725,32	3559,370
725,51	3479,499
725,71	3563,466
725,90	3416,012
726,09	3545,034
726,28	3465,163
726,47	3375,052
726,66	3534,794
726,85	3403,724
727,04	3315,661
727,23	3364,813
727,42	3252,174
727,61	3254,222
727,81	3340,237
728,00	3334,093
728,19	3194,831
728,38	3192,783
728,57	3243,982
728,76	3219,407
728,95	3235,791
729,14	3176,400
729,33	3227,599
729,52	3110,865
729,71	3186,639
729,90	3112,912
730,09	3002,322
730,28	3180,495
730,48	3110,865
730,67	3135,440
730,86	3012,562
731,05	3078,097
731,24	3020,754
731,43	3014,610
731,62	3092,433
731,81	3117,008
732,00	2944,979
732,19	3088,337
732,38	2861,012
732,57	2930,643
732,76	2781,142
732,95	2908,116
733,14	2772,950
733,33	2893,780
733,52	2740,182
733,71	2734,038
733,90	2758,614
734,09	2836,437
734,28	2863,060
734,47	2756,566
734,66	2846,677
734,85	2774,998
735,04	2740,182
735,23	2699,223
735,42	2738,134
735,61	2713,559
735,81	2662,359
736,00	2754,518
736,19	2670,551
736,38	2623,448
736,57	2725,846
736,76	2686,935
736,95	2519,002
737,14	2547,673
737,33	2658,263
737,52	2590,680
737,71	2568,153
737,90	2607,064
738,09	2645,976
738,28	2637,784
738,47	2510,810
738,66	2559,961
738,85	2631,640
739,04	2514,906
739,22	2500,570
739,41	2422,747
739,60	2527,193
739,79	2447,323
739,98	2473,946
740,17	2408,411
740,36	2428,891
740,55	2510,810
740,74	2457,562
740,93	2344,924
741,12	2496,474
741,31	2471,898
741,50	2445,275
741,69	2375,644
741,88	2355,164
742,07	2314,205
742,26	2379,740
742,45	2228,190
742,64	2461,658
742,83	2383,836
743,02	2330,588
743,21	2428,891
743,40	2359,260
743,59	2387,932
743,78	2277,341
743,97	2346,972
744,16	2279,389
744,34	2172,895
744,53	2293,725
744,72	2285,533
744,91	2267,101
745,10	2226,142
745,29	2293,725
745,48	2211,806
745,67	2205,662
745,86	2205,662
746,05	2183,135
746,24	2242,526
746,43	2265,053
746,62	2234,334
746,81	2164,703
747,00	2205,662
747,18	2265,053
747,37	2201,566
747,56	2164,703
747,75	2187,231
747,94	2142,175
748,13	2158,559
748,32	2187,231
748,51	2066,400
748,70	2287,581
748,89	2164,703
749,08	2078,688
749,26	2168,799
749,45	2070,496
749,64	2080,736
749,83	2142,175
750,02	1994,722
750,21	2150,367
750,40	2215,902
750,59	2168,799
750,78	2127,840
750,96	2031,585
751,15	2123,744
751,34	2088,928
751,53	2170,847
751,72	2019,297
751,91	2025,441
752,10	2097,120
752,29	2058,209
752,47	2039,777
752,66	1935,330
752,85	1978,338
753,04	2068,448
753,23	1955,810
753,42	2068,448
753,61	1982,434
753,80	1931,235
753,98	2093,024
754,17	1978,338
754,36	1953,762
754,55	1912,803
754,74	1978,338
754,93	1994,722
755,12	1980,386
755,30	1865,700
755,49	2033,633
755,68	1945,570
755,87	1986,530
756,06	1912,803
756,25	1898,467
756,43	1980,386
756,62	1882,083
756,81	1906,659
757,00	1994,722
757,19	1869,795
757,38	1849,316
757,56	1867,748
757,75	1875,939
757,94	1906,659
758,13	1941,474
758,32	1904,611
758,51	1935,330
758,69	1841,124
758,88	1947,618
759,07	1966,050
759,26	1882,083
759,45	1902,563
759,63	1796,069
759,82	1789,925
760,01	1851,364
760,20	1855,460
760,39	1888,227
760,57	1884,131
760,76	1824,740
760,95	1775,589
761,14	1794,021
761,33	1914,851
761,51	1841,124
761,70	1855,460
761,89	1775,589
762,08	1712,102
762,27	1880,035
762,45	1839,076
762,64	1753,061
762,83	1810,404
763,02	1771,493
763,21	1763,301
763,39	1851,364
763,58	1859,556
763,77	1808,356
763,96	1761,253
764,14	1800,165
764,33	1728,486
764,52	1798,117
764,71	1869,795
764,89	1734,630
765,08	1802,212
765,27	1826,788
765,46	1748,965
765,65	1779,685
765,83	1667,047
766,02	1753,061
766,21	1726,438
766,40	1839,076
766,58	1730,534
766,77	1710,054
766,96	1759,205
767,15	1767,397
767,33	1667,047
767,52	1771,493
767,71	1759,205
767,90	1699,814
768,08	1673,190
768,27	1777,637
768,46	1699,814
768,64	1787,877
768,83	1701,862
769,02	1757,157
769,21	1679,334
769,39	1593,320
769,58	1769,445
769,77	1740,773
769,96	1744,869
770,14	1687,526
770,33	1726,438
770,52	1646,567
770,70	1744,869
770,89	1662,951
771,08	1693,670
771,27	1728,486
771,45	1662,951
771,64	1642,471
771,83	1746,917
772,01	1630,183
772,20	1656,807
772,39	1705,958
772,57	1718,246
772,76	1677,286
772,95	1632,231
773,14	1656,807
773,32	1607,655
773,51	1701,862
773,70	1581,032
773,88	1724,390
774,07	1626,087
774,26	1615,847
774,44	1531,881
774,63	1576,936
774,82	1617,895
775,00	1746,917
775,19	1726,438
775,38	1652,711
775,56	1581,032
775,75	1683,430
775,94	1605,608
776,12	1550,312
776,31	1599,464
776,50	1636,327
776,68	1701,862
776,87	1636,327
777,06	1587,176
777,24	1566,696
777,43	1619,943
777,62	1636,327
777,80	1564,648
777,99	1587,176
778,18	1654,759
778,36	1538,025
778,55	1576,936
778,74	1576,936
778,92	1615,847
779,11	1531,881
779,29	1648,615
779,48	1583,080
779,67	1548,264
779,85	1544,168
780,04	1607,655
780,23	1621,991
780,41	1499,113
780,60	1583,080
780,79	1591,272
780,97	1611,751
781,16	1660,903
781,34	1607,655
781,53	1591,272
781,72	1576,936
781,90	1628,135
782,09	1488,873
782,28	1681,382
782,46	1552,360
782,65	1521,641
782,83	1648,615
783,02	1439,722
783,21	1519,593
783,39	1562,600
783,58	1576,936
783,76	1572,840
783,95	1486,825
784,14	1523,689
784,32	1509,353
784,51	1611,751
784,69	1636,327
784,88	1564,648
785,06	1572,840
785,25	1568,744
785,44	1505,257
785,62	1603,560
785,81	1568,744
785,99	1591,272
786,18	1501,161
786,37	1503,209
786,55	1556,456
786,74	1554,408
786,92	1648,615
787,11	1619,943
787,29	1583,080
787,48	1501,161
787,67	1568,744
787,85	1533,929
788,04	1501,161
788,22	1497,065
788,41	1632,231
788,59	1566,696
788,78	1511,401
788,96	1523,689
789,15	1587,176
789,34	1540,072
789,52	1490,921
789,71	1476,585
789,89	1513,449
790,08	1531,881
790,26	1570,792
790,45	1462,250
790,63	1492,969
790,82	1564,648
791,00	1519,593
791,19	1546,216
791,38	1609,703
791,56	1499,113
791,75	1515,497
791,93	1458,154
792,12	1540,072
792,30	1556,456
792,49	1517,545
792,67	1572,840
792,86	1515,497
793,04	1546,216
793,23	1486,825
793,41	1548,264
793,60	1593,320
793,78	1548,264
793,97	1589,224
794,15	1435,626
794,34	1462,250
794,52	1605,608
794,71	1619,943
794,89	1593,320
795,08	1597,416
795,26	1456,106
795,45	1505,257
795,63	1568,744
795,82	1462,250
796,00	1460,202
796,19	1564,648
796,37	1611,751
796,56	1585,128
796,74	1558,504
796,93	1415,146
797,11	1507,305
797,30	1562,600
797,48	1583,080
797,67	1564,648
797,85	1513,449
798,04	1576,936
798,22	1472,490
798,41	1636,327
798,59	1480,681
798,77	1492,969
798,96	1538,025
799,14	1595,368
799,33	1495,017
799,51	1445,866
799,70	1550,312
799,88	1497,065
800,07	1503,209
800,25	1509,353
800,44	1425,386
800,62	1488,873
800,80	1576,936
800,99	1445,866
801,17	1495,017
801,36	1527,785
801,54	1568,744
801,73	1525,737
801,91	1515,497
802,10	1519,593
802,28	1546,216
802,46	1538,025
802,65	1587,176
802,83	1548,264
803,02	1589,224
803,20	1505,257
803,39	1382,379
803,57	1589,224
803,75	1521,641
803,94	1558,504
804,12	1460,202
804,31	1511,401
804,49	1564,648
804,67	1609,703
804,86	1550,312
805,04	1515,497
805,23	1521,641
805,41	1560,552
805,59	1495,017
805,78	1435,626
805,96	1564,648
806,15	1572,840
806,33	1466,346
806,51	1503,209
806,70	1585,128
806,88	1501,161
807,07	1499,113
807,25	1558,504
807,43	1501,161
807,62	1531,881
807,80	1501,161
807,99	1548,264
808,17	1603,560
808,35	1626,087
808,54	1562,600
808,72	1507,305
808,90	1644,519
809,09	1554,408
809,27	1505,257
809,46	1519,593
809,64	1419,242
809,82	1662,951
810,01	1554,408
810,19	1552,360
810,37	1535,977
810,56	1454,058
810,74	1462,250
810,92	1683,430
811,11	1626,087
811,29	1535,977
811,48	1564,648
811,66	1492,969
811,84	1587,176
812,03	1591,272
812,21	1589,224
812,39	1640,423
812,58	1435,626
812,76	1613,799
812,94	1533,929
813,13	1585,128
813,31	1527,785
813,49	1626,087
813,68	1644,519
813,86	1585,128
814,04	1589,224
814,23	1658,855
814,41	1525,737
814,59	1523,689
814,78	1630,183
814,96	1673,190
815,14	1585,128
815,33	1656,807
815,51	1599,464
815,69	1497,065
815,87	1476,585
816,06	1624,039
816,24	1650,663
816,42	1511,401
816,61	1546,216
816,79	1628,135
816,97	1544,168
817,16	1628,135
817,34	1546,216
817,52	1562,600
817,70	1630,183
817,89	1576,936
818,07	1621,991
818,25	1556,456
818,44	1570,792
818,62	1605,608
818,80	1628,135
818,98	1576,936
819,17	1578,984
819,35	1679,334
819,53	1578,984
819,72	1615,847
819,90	1597,416
820,08	1597,416
820,26	1566,696
820,45	1626,087
820,63	1607,655
820,81	1540,072
820,99	1621,991
821,18	1648,615
821,36	1693,670
821,54	1644,519
821,73	1679,334
821,91	1564,648
822,09	1642,471
822,27	1687,526
822,46	1687,526
822,64	1628,135
822,82	1755,109
823,00	1785,829
823,19	1761,253
823,37	1710,054
823,55	1695,718
823,73	1613,799
823,91	1533,929
824,10	1734,630
824,28	1697,766
824,46	1609,703
824,64	1615,847
824,83	1667,047
825,01	1636,327
825,19	1556,456
825,37	1591,272
825,56	1728,486
825,74	1671,142
825,92	1654,759
826,10	1683,430
826,28	1716,198
826,47	1708,006
826,65	1630,183
826,83	1638,375
827,01	1630,183
827,19	1771,493
827,38	1732,582
827,56	1800,165
827,74	1757,157
827,92	1722,342
828,10	1708,006
828,29	1705,958
828,47	1814,500
828,65	1630,183
828,83	1736,678
829,01	1720,294
829,20	1695,718
829,38	1638,375
829,56	1703,910
829,74	1681,382
829,92	1859,556
830,10	1695,718
830,29	1744,869
830,47	1783,781
830,65	1683,430
830,83	1873,891
831,01	1664,999
831,20	1705,958
831,38	1751,013
831,56	1783,781
831,74	1767,397
831,92	1642,471
832,10	1748,965
832,29	1675,238
832,47	1800,165
832,65	1751,013
832,83	1785,829
833,01	1753,061
833,19	1755,109
833,37	1761,253
833,56	1832,932
833,74	1736,678
833,92	1798,117
834,10	1808,356
834,28	1853,412
834,46	1896,419
834,64	1763,301
834,83	1808,356
835,01	1894,371
835,19	1859,556
835,37	1824,740
835,55	1783,781
835,73	1791,973
835,91	1808,356
836,09	1908,707
836,28	1888,227
836,46	1865,700
836,64	1839,076
836,82	1787,877
837,00	1980,386
837,18	1914,851
837,36	1865,700
837,54	1820,644
837,72	1884,131
837,91	1869,795
838,09	1906,659
838,27	1984,482
838,45	1939,426
838,63	1923,043
838,81	1970,146
838,99	1859,556
839,17	1964,002
839,35	2035,681
839,53	1992,674
839,72	1957,858
839,90	1900,515
840,08	1918,947
840,26	1908,707
840,44	1959,906
840,62	1908,707
840,80	2017,249
840,98	1992,674
841,16	1943,522
841,34	1966,050
841,52	1966,050
841,70	1970,146
841,89	1880,035
842,07	2023,393
842,25	2013,153
842,43	1875,939
842,61	1996,770
842,79	2101,216
842,97	1929,187
843,15	1992,674
843,33	2011,105
843,51	2041,825
843,69	1951,714
843,87	1978,338
844,05	2095,072
844,23	2078,688
844,41	2047,969
844,59	2052,065
844,77	2115,552
844,95	1974,242
845,13	1994,722
845,31	2043,873
845,50	2142,175
845,68	2039,777
845,86	2068,448
846,04	2058,209
846,22	2142,175
846,40	2015,201
846,58	2002,913
846,76	2058,209
846,94	2172,895
847,12	2054,113
847,30	2152,415
847,48	2076,640
847,66	2183,135
847,84	2127,840
848,02	2189,279
848,20	2236,382
848,38	2146,271
848,56	2123,744
848,74	2127,840
848,92	2166,751
849,10	2242,526
849,28	2379,740
849,46	2150,367
849,64	2174,943
849,82	2111,456
850,00	2232,286
850,18	2269,149
850,36	2289,629
850,54	2219,998
850,72	2162,655
850,90	2287,581
851,08	2213,854
851,26	2344,924
851,44	2320,349
851,62	2201,566
851,80	2260,958
851,98	2351,068
852,16	2312,157
852,34	2355,164
852,52	2303,965
852,70	2344,924
852,87	2209,758
853,05	2435,035
853,23	2306,013
853,41	2303,965
853,59	2471,898
853,77	2424,795
853,95	2322,397
854,13	2283,485
854,31	2349,020
854,49	2406,363
854,67	2328,540
854,85	2320,349
855,03	2342,876
855,21	2326,492
855,39	2451,419
855,57	2469,850
855,75	2412,507
855,93	2422,747
856,11	2363,356
856,28	2447,323
856,46	2396,123
856,64	2439,131
856,82	2500,570
857,00	2379,740
857,18	2471,898
857,36	2605,016
857,54	2469,850
857,72	2521,050
857,90	2408,411
858,08	2449,371
858,26	2404,315
858,44	2453,467
858,61	2562,009
858,79	2482,138
858,97	2508,762
859,15	2674,647
859,33	2615,256
859,51	2582,489
859,69	2535,385
859,87	2600,920
860,05	2574,297
860,23	2553,817
860,40	2506,714
860,58	2602,968
860,76	2660,311
860,94	2590,680
861,12	2668,503
861,30	2680,791
861,48	2701,271
861,66	2625,496
861,84	2738,134
862,01	2783,190
862,19	2568,153
862,37	2699,223
862,55	2727,894
862,73	2731,990
862,91	2748,374
863,09	2729,942
863,27	2783,190
863,44	2838,485
863,62	2863,060
863,80	2897,876
863,98	2740,182
864,16	2856,916
864,34	2756,566
864,52	2899,924
864,69	2783,190
864,87	2836,437
865,05	2807,765
865,23	2906,068
865,41	2836,437
865,59	2871,252
865,76	2951,123
865,94	2936,787
866,12	2822,101
866,30	2889,684
866,48	2959,315
866,66	2885,588
866,83	2877,396
867,01	2965,459
867,19	2922,451
867,37	3033,042
867,55	3069,905
867,73	3071,953
867,90	3008,466
868,08	3200,975
868,26	2959,315
868,44	3067,857
868,62	3047,378
868,79	3168,208
868,97	3010,514
869,15	3123,152
869,33	2981,842
869,51	3168,208
869,69	2992,082
869,86	3076,049
870,04	3106,769
870,22	3200,975
870,40	3104,721
870,57	3084,241
870,75	3164,112
870,93	3262,414
871,11	3227,599
871,29	3067,857
871,46	3194,831
871,64	3223,503
871,82	3215,311
872,00	3340,237
872,18	3354,573
872,35	3311,565
872,53	3260,366
872,71	3284,942
872,89	3254,222
873,06	3291,086
873,24	3375,052
873,42	3432,396
873,60	3358,669
873,77	3454,923
873,95	3346,381
874,13	3403,724
874,31	3340,237
874,49	3440,588
874,66	3522,506
874,84	3342,285
875,02	3551,178
875,20	3413,964
875,37	3577,801
875,55	3471,307
875,73	3669,960
875,91	3618,761
876,08	3573,705
876,26	3731,399
876,44	3661,768
876,61	3839,941
876,79	3762,119
876,97	3639,240
877,15	3717,063
877,32	3725,255
877,50	3841,989
877,68	3809,222
877,86	3753,927
878,03	3856,325
878,21	3921,860
878,39	3809,222
878,56	3866,565
878,74	3962,820
878,92	3921,860
879,10	4020,163
879,27	3932,100
879,45	4026,307
879,63	3973,059
879,80	4028,355
879,98	4069,314
880,16	4149,185
880,34	4063,170
880,51	4050,882
880,69	4155,329
880,87	4288,447
881,04	4229,055
881,22	4329,406
881,40	4253,631
881,57	4251,583
881,75	4339,646
881,93	4394,941
882,10	4329,406
882,28	4339,646
882,46	4292,542
882,63	4503,483
882,81	4376,509
882,99	4415,421
883,16	4433,852
883,34	4511,675
883,52	4396,989
883,69	4382,653
883,87	4562,874
884,05	4718,520
884,22	4566,970
884,40	4642,745
884,58	4534,203
884,75	4763,575
884,93	4745,144
885,11	4700,088
885,28	4599,738
885,46	4779,959
885,64	4796,343
885,81	4833,206
885,99	4689,848
886,17	4865,974
886,34	5027,763
886,52	4984,756
886,70	4804,535
886,87	5154,737
887,05	4974,516
887,22	5101,490
887,40	5136,306
887,58	5126,066
887,75	4984,756
887,93	5107,634
888,11	5156,785
888,28	5187,505
888,46	5121,970
888,63	5351,342
888,81	5238,704
888,99	5361,582
889,16	5314,479
889,34	5504,940
889,51	5472,172
889,69	5492,652
889,87	5349,294
890,04	5472,172
890,22	5488,556
890,39	5392,302
890,57	5531,564
890,75	5779,368
890,92	5679,017
891,10	5767,080
891,27	5685,161
891,45	5683,113
891,63	5713,833
891,80	5787,560
891,98	5867,430
892,15	5762,984
892,33	5795,752
892,51	5668,778
892,68	5814,183
892,86	5875,622
893,03	5912,486
893,21	5865,382
893,38	5928,870
893,56	6109,091
893,74	5896,102
893,91	6049,700
894,09	6029,220
894,26	6016,932
894,44	6047,652
894,61	6162,338
894,79	6113,187
894,96	6195,105
895,14	6164,386
895,32	6281,120
895,49	6104,995
895,67	6145,954
895,84	6178,722
896,02	6213,537
896,19	6240,161
896,37	6272,928
896,54	6336,415
896,72	6447,006
896,89	6416,286
897,07	6381,471
897,25	6424,478
897,42	6510,493
897,60	6430,622
897,77	6418,334
897,95	6338,463
898,12	6551,452
898,30	6557,596
898,47	6619,035
898,65	6563,740
898,82	6594,459
899,00	6662,042
899,17	6553,500
899,35	6649,755
899,52	6852,503
899,70	6709,146
899,87	6774,681
900,05	6737,817
900,22	6709,146
900,40	6809,496
900,57	6907,799
900,75	6915,990
900,92	6879,127
901,10	6799,256
901,27	6944,662
901,45	7006,101
901,62	6829,976
901,80	6832,024
901,97	7010,197
902,15	7137,171
902,32	7034,773
902,50	7092,116
902,67	6918,038
902,85	7147,411
903,02	7174,035
903,20	7065,492
903,37	7110,548
903,54	7116,691
903,72	7258,001
903,89	7169,939
904,07	7116,691
904,24	7237,522
904,42	7147,411
904,59	7116,691
904,77	7143,315
904,94	7315,344
905,12	7190,418
905,29	7219,090
905,47	7255,953
905,64	7192,466
905,81	7231,378
905,99	7217,042
906,16	7384,975
906,34	7341,968
906,51	7270,289
906,69	7188,370
906,86	7460,750
907,03	7423,887
907,21	7501,710
907,38	7378,831
907,56	7571,340
907,73	7493,518
907,91	7749,514
908,08	7487,374
908,25	7643,019
908,43	7573,388
908,60	7792,521
908,78	7665,547
908,95	7716,746
909,13	7640,971
909,30	7712,650
909,47	7702,410
909,65	7815,049
909,82	7847,816
910,00	7964,550
910,17	7800,713
910,34	8056,709
910,52	7905,159
910,69	7860,104
910,87	7837,576
911,04	8083,333
911,21	8093,572
911,39	8175,491
911,56	7935,879
911,73	8198,019
911,91	8120,196
912,08	8243,074
912,26	8212,355
912,43	8296,321
912,60	8232,834
912,78	8372,096
912,95	8241,026
913,13	8488,830
913,30	8238,978
913,47	8429,439
913,65	8392,576
913,82	8451,967
913,99	8404,864
914,17	8722,299
914,34	8587,133
914,51	8503,166
914,69	8505,214
914,86	8507,262
915,03	8503,166
915,21	8503,166
915,38	8417,152
915,56	8785,786
915,73	8585,085
915,90	8664,956
916,08	8529,790
916,25	8816,505
916,42	8566,653
916,60	8707,963
916,77	8755,066
916,94	8728,443
917,12	8621,948
917,29	8793,978
917,46	8779,642
917,64	8724,347
917,81	8882,040
917,98	8871,801
918,16	9029,494
918,33	9099,125
918,50	8988,535
918,67	8935,288
918,85	8951,671
919,02	9256,819
919,19	9277,298
919,37	9269,107
919,54	9025,398
919,71	9389,937
919,89	9222,003
920,06	9381,745
920,23	9422,704
920,41	9564,014
920,58	9215,859
920,75	9418,608
920,92	9414,512
921,10	9310,066
921,27	9521,007
921,44	9693,036
921,62	9635,693
921,79	9713,516
921,96	9740,139
922,13	9590,638
922,31	9805,674
922,48	9736,043
922,65	9758,571
922,82	9688,940
923,00	9883,497
923,17	9789,291
923,34	9994,088
923,52	10155,877
923,69	10114,918
923,86	9865,065
924,03	10026,855
924,21	9963,368
924,38	9981,800
924,55	10073,958
924,72	10080,102
924,90	10178,405
925,07	10116,966
925,24	10092,390
925,41	10071,910
925,59	10399,585
925,76	10225,508
925,93	10362,722
926,10	10418,017
926,28	10401,633
926,45	10532,703
926,62	10422,113
926,79	10413,921
926,96	10557,279
927,14	10612,574
927,31	10563,423
927,48	10792,795
927,65	10866,522
927,83	10669,917
928,00	10860,378
928,17	10712,925
928,34	10731,356
928,51	10739,548
928,69	10946,393
928,86	10757,980
929,03	10772,316
929,20	10901,338
929,37	11026,264
929,55	11177,813
929,72	11065,175
929,89	11134,806
930,06	11149,142
930,23	11237,205
930,41	11280,212
930,58	11120,470
930,75	11335,507
930,92	11378,514
931,09	11315,027
931,27	11315,027
931,44	11366,227
931,61	11493,201
931,78	11362,131
931,95	11347,795
932,12	11476,817
932,30	11392,850
932,47	11374,418
932,64	11501,392
932,81	11472,721
932,98	11237,205
933,16	11544,400
933,33	11489,105
933,50	11401,042
933,67	11487,057
933,84	11427,666
934,01	11489,105
934,18	11554,640
934,36	11450,193
934,53	11495,249
934,70	11599,695
934,87	11460,433
935,04	11540,304
935,21	11689,806
935,38	11532,112
935,56	11919,178
935,73	11642,702
935,90	11597,647
936,07	11747,149
936,24	11751,245
936,41	11745,101
936,58	11736,909
936,76	11788,108
936,93	11757,389
937,10	11702,093
937,27	11808,588
937,44	11546,448
937,61	11493,201
937,78	11798,348
937,95	11646,798
938,13	11886,411
938,30	11624,271
938,47	11601,743
938,64	11560,784
938,81	11646,798
938,98	11644,750
939,15	11493,201
939,32	11741,005
939,49	11687,758
939,66	11642,702
939,84	11501,392
940,01	11427,666
940,18	11489,105
940,35	11349,843
940,52	11282,260
940,69	11571,023
940,86	11396,946
941,03	11255,636
941,20	11497,297
941,37	11175,765
941,54	11106,135
941,71	11030,360
941,89	11005,784
942,06	11149,142
942,23	10850,138
942,40	11179,861
942,57	11042,648
942,74	10940,249
942,91	10786,651
943,08	10917,721
943,25	10547,039
943,42	10594,142
943,59	10508,128
943,76	10399,585
943,93	10493,792
944,10	10428,257
944,27	10334,050
944,44	10266,467
944,61	10209,124
944,79	10108,774
944,96	9946,984
945,13	10182,501
945,30	10057,575
945,47	9774,955
945,64	9797,482
945,81	9723,756
945,98	9607,021
946,15	9545,582
946,32	9561,966
946,49	9336,690
946,66	9310,066
946,83	9199,476
947,00	9240,435
947,17	8980,343
947,34	8900,472
947,51	8894,328
947,68	8740,731
947,85	8755,066
948,02	8744,827
948,19	8441,727
948,36	8466,303
948,53	8411,008
948,70	8271,746
948,87	7956,359
949,04	8054,661
949,21	8007,558
949,38	7792,521
949,55	7694,219
949,72	7604,108
949,89	7630,732
950,06	7475,086
950,23	7448,462
950,40	7303,057
950,57	7307,152
950,74	7059,348
950,91	6893,463
951,08	6856,599
951,25	6805,400
951,42	6801,304
951,59	6711,194
951,76	6518,685
951,93	6535,068
952,10	6397,854
952,27	6148,002
952,44	6127,522
952,61	5953,445
952,77	5994,405
952,94	5777,320
953,11	5728,169
953,28	5765,032
953,45	5652,394
953,62	5679,017
953,79	5439,405
953,96	5425,069
954,13	5308,335
954,30	5197,745
954,47	5054,387
954,64	4935,605
954,81	4939,701
954,98	4976,564
955,15	4704,184
955,32	4804,535
955,49	4493,243
955,65	4513,723
955,82	4575,162
955,99	4382,653
956,16	4306,878
956,33	4327,358
956,50	4061,122
956,67	4214,720
956,84	4218,816
957,01	4069,314
957,18	3962,820
957,35	3786,694
957,52	3809,222
957,68	3764,167
957,85	3653,576
958,02	3669,960
958,19	3446,731
958,36	3622,857
958,53	3536,842
958,70	3514,314
958,87	3348,429
959,04	3309,518
959,21	3274,702
959,37	3286,990
959,54	3280,846
959,71	3057,617
959,88	3090,385
960,05	3033,042
960,22	2861,012
960,39	2961,363
960,56	2904,020
960,72	2770,902
960,89	2990,034
961,06	2822,101
961,23	2721,750
961,40	2832,341
961,57	2609,112
961,74	2611,160
961,90	2727,894
962,07	2668,503
962,24	2625,496
962,41	2527,193
962,58	2555,865
962,75	2486,234
962,92	2498,522
963,08	2387,932
963,25	2387,932
963,42	2301,917
963,59	2295,773
963,76	2295,773
963,93	2338,780
964,10	2234,334
964,26	2260,958
964,43	2258,910
964,60	2205,662
964,77	2203,614
964,94	2113,504
965,10	2072,544
965,27	2023,393
965,44	1990,626
965,61	1914,851
965,78	2078,688
965,95	2148,319
966,11	2050,017
966,28	2080,736
966,45	1957,858
966,62	1961,954
966,79	2009,057
966,95	1877,987
967,12	1986,530
967,29	1920,995
967,46	1851,364
967,63	1828,836
967,79	1859,556
967,96	1791,973
968,13	1718,246
968,30	1785,829
968,47	1777,637
968,63	1759,205
968,80	1839,076
968,97	1697,766
969,14	1722,342
969,31	1648,615
969,47	1658,855
969,64	1802,212
969,81	1673,190
969,98	1714,150
970,14	1708,006
970,31	1619,943
970,48	1621,991
970,65	1644,519
970,81	1689,574
970,98	1708,006
971,15	1609,703
971,32	1540,072
971,48	1564,648
971,65	1646,567
971,82	1540,072
971,99	1576,936
972,15	1574,888
972,32	1562,600
972,49	1597,416
972,66	1634,279
972,82	1578,984
972,99	1535,977
973,16	1621,991
973,33	1593,320
973,49	1558,504
973,66	1497,065
973,83	1566,696
974,00	1482,729
974,16	1447,914
974,33	1560,552
974,50	1513,449
974,67	1497,065
974,83	1460,202
975,00	1437,674
975,17	1488,873
975,33	1464,298
975,50	1472,490
975,67	1454,058
975,84	1490,921
976,00	1476,585
976,17	1501,161
976,34	1435,626
976,50	1581,032
976,67	1419,242
976,84	1411,050
977,00	1421,290
977,17	1368,043
977,34	1466,346
977,50	1462,250
977,67	1476,585
977,84	1406,955
978,01	1452,010
978,17	1535,977
978,34	1421,290
978,51	1411,050
978,67	1409,002
978,84	1470,442
979,01	1566,696
979,17	1464,298
979,34	1419,242
979,51	1425,386
979,67	1419,242
979,84	1511,401
980,01	1515,497
980,17	1425,386
980,34	1441,770
980,51	1409,002
980,67	1480,681
980,84	1499,113
981,01	1400,811
981,17	1486,825
981,34	1593,320
981,50	1431,530
981,67	1400,811
981,84	1499,113
982,00	1445,866
982,17	1431,530
982,34	1349,611
982,50	1433,578
982,67	1392,619
982,84	1406,955
983,00	1376,235
983,17	1363,947
983,33	1409,002
983,50	1431,530
983,67	1470,442
983,83	1327,084
984,00	1433,578
984,17	1396,715
984,33	1406,955
984,50	1388,523
984,66	1468,394
984,83	1435,626
985,00	1437,674
985,16	1509,353
985,33	1302,508
985,49	1497,065
985,66	1447,914
985,83	1347,563
985,99	1359,851
986,16	1435,626
986,32	1433,578
986,49	1382,379
986,66	1411,050
986,82	1402,859
986,99	1386,475
987,15	1325,036
987,32	1374,187
987,49	1404,907
987,65	1345,515
987,82	1361,899
987,98	1427,434
988,15	1452,010
988,31	1419,242
988,48	1433,578
988,65	1413,098
988,81	1437,674
988,98	1370,091
989,14	1355,755
989,31	1501,161
989,47	1390,571
989,64	1404,907
989,80	1409,002
989,97	1437,674
990,14	1439,722
990,30	1363,947
990,47	1374,187
990,63	1435,626
990,80	1316,844
990,96	1419,242
991,13	1478,633
991,29	1454,058
991,46	1454,058
991,62	1359,851
991,79	1331,180
991,95	1445,866
992,12	1394,667
992,29	1351,659
992,45	1359,851
992,62	1404,907
992,78	1435,626
992,95	1378,283
993,11	1361,899
993,28	1404,907
993,44	1273,837
993,61	1384,427
993,77	1341,420
993,94	1413,098
994,10	1419,242
994,27	1402,859
994,43	1398,763
994,60	1359,851
994,76	1409,002
994,93	1347,563
995,09	1413,098
995,26	1398,763
995,42	1361,899
995,59	1470,442
995,75	1396,715
995,92	1413,098
996,08	1421,290
996,25	1386,475
996,41	1374,187
996,58	1482,729
996,74	1392,619
996,91	1470,442
997,07	1396,715
997,23	1466,346
997,40	1429,482
997,56	1363,947
997,73	1492,969
997,89	1388,523
998,06	1419,242
998,22	1462,250
998,39	1419,242
998,55	1322,988
998,72	1386,475
998,88	1449,962
999,05	1308,652
999,21	1386,475
999,37	1419,242
999,54	1441,770
999,70	1368,043
999,87	1372,139
1000,03	1394,667
1000,20	1413,098
1000,36	1441,770
1000,52	1421,290
1000,69	1456,106
1000,85	1337,324
1001,02	1482,729
1001,18	1370,091
1001,35	1417,194
1001,51	1396,715
1001,67	1503,209
1001,84	1511,401
1002,00	1331,180
1002,17	1427,434
1002,33	1400,811
1002,50	1359,851
1002,66	1368,043
1002,82	1361,899
1002,99	1304,556
1003,15	1413,098
1003,32	1400,811
1003,48	1331,180
1003,64	1417,194
1003,81	1474,538
1003,97	1454,058
1004,14	1314,796
1004,30	1347,563
1004,46	1365,995
1004,63	1404,907
1004,79	1333,228
1004,95	1419,242
1005,12	1384,427
1005,28	1513,449
1005,45	1398,763
1005,61	1363,947
1005,77	1415,146
1005,94	1417,194
1006,10	1290,220
1006,26	1427,434
1006,43	1351,659
1006,59	1353,707
1006,76	1359,851
1006,92	1452,010
1007,08	1548,264
1007,25	1361,899
1007,41	1435,626
1007,57	1273,837
1007,74	1433,578
1007,90	1415,146
1008,06	1333,228
1008,23	1314,796
1008,39	1445,866
1008,55	1519,593
1008,72	1320,940
1008,88	1333,228
1009,04	1384,427
1009,21	1456,106
1009,37	1302,508
1009,53	1290,220
1009,70	1298,412
1009,86	1386,475
1010,02	1374,187
1010,19	1265,645
1010,35	1361,899
1010,51	1382,379
1010,68	1400,811
1010,84	1388,523
1011,00	1423,338
1011,17	1296,364
1011,33	1382,379
1011,49	1406,955
1011,66	1386,475
1011,82	1316,844
1011,98	1382,379
1012,14	1349,611
1012,31	1435,626
1012,47	1363,947
1012,63	1402,859
1012,80	1425,386
1012,96	1464,298
1013,12	1374,187
1013,29	1404,907
1013,45	1409,002
1013,61	1325,036
1013,77	1417,194
1013,94	1316,844
1014,10	1345,515
1014,26	1306,604
1014,43	1404,907
1014,59	1380,331
1014,75	1351,659
1014,91	1460,202
1015,08	1443,818
1015,24	1361,899
1015,40	1427,434
1015,56	1413,098
1015,73	1320,940
1015,89	1314,796
1016,05	1376,235
1016,21	1279,980
1016,38	1458,154
1016,54	1376,235
1016,70	1306,604
1016,86	1382,379
1017,03	1374,187
1017,19	1349,611
1017,35	1359,851
1017,51	1406,955
1017,68	1316,844
1017,84	1427,434
1018,00	1388,523
1018,16	1296,364
1018,33	1378,283
1018,49	1380,331
1018,65	1308,652
1018,81	1333,228
1018,97	1406,955
1019,14	1368,043
1019,30	1486,825
1019,46	1470,442
1019,62	1320,940
1019,79	1390,571
1019,95	1384,427
1020,11	1404,907
1020,27	1380,331
1020,43	1306,604
1020,60	1339,372
1020,76	1441,770
1020,92	1359,851
1021,08	1306,604
1021,24	1406,955
1021,41	1384,427
1021,57	1351,659
1021,73	1341,420
1021,89	1314,796
1022,05	1431,530
1022,21	1349,611
1022,38	1273,837
1022,54	1380,331
1022,70	1355,755
1022,86	1314,796
1023,02	1384,427
1023,19	1339,372
1023,35	1445,866
1023,51	1320,940
1023,67	1380,331
1023,83	1431,530
1023,99	1335,276
1024,16	1249,261
1024,32	1351,659
1024,48	1402,859
1024,64	1380,331
1024,80	1415,146
1024,96	1413,098
1025,12	1378,283
1025,29	1320,940
1025,45	1372,139
1025,61	1308,652
1025,77	1361,899
1025,93	1361,899
1026,09	1318,892
1026,26	1308,652
1026,42	1298,412
1026,58	1378,283
1026,74	1312,748
1026,90	1239,021
1027,06	1337,324
1027,22	1390,571
1027,38	1343,468
1027,55	1269,741
1027,71	1398,763
1027,87	1386,475
1028,03	1411,050
1028,19	1271,789
1028,35	1460,202
1028,51	1261,549
1028,67	1333,228
1028,83	1343,468
1029,00	1341,420
1029,16	1257,453
1029,32	1372,139
1029,48	1230,829
1029,64	1282,028
1029,80	1259,501
1029,96	1411,050
1030,12	1423,338
1030,28	1333,228
1030,44	1345,515
1030,61	1417,194
1030,77	1255,405
1030,93	1427,434
1031,09	1269,741
1031,25	1245,165
1031,41	1343,468
1031,57	1304,556
1031,73	1322,988
1031,89	1245,165
1032,05	1243,117
1032,21	1271,789
1032,37	1249,261
1032,53	1318,892
1032,69	1347,563
1032,86	1222,637
1033,02	1345,515
1033,18	1224,685
1033,34	1249,261
1033,50	1390,571
1033,66	1349,611
1033,82	1343,468
1033,98	1286,124
1034,14	1302,508
1034,30	1257,453
1034,46	1341,420
1034,62	1298,412
1034,78	1443,818
1034,94	1349,611
1035,10	1259,501
1035,26	1253,357
1035,42	1413,098
1035,58	1347,563
1035,74	1306,604
1035,90	1318,892
1036,06	1302,508
1036,22	1212,398
1036,38	1333,228
1036,54	1279,980
1036,70	1269,741
1036,86	1288,172
1037,02	1327,084
1037,18	1376,235
1037,34	1357,803
1037,50	1243,117
1037,66	1257,453
1037,82	1339,372
1037,98	1402,859
1038,14	1232,877
1038,30	1322,988
1038,46	1359,851
1038,62	1368,043
1038,78	1351,659
1038,94	1222,637
1039,10	1292,268
1039,26	1251,309
1039,42	1304,556
1039,58	1322,988
1039,74	1361,899
1039,90	1267,693
1040,06	1325,036
>>>>>End Spectral Data<<<<<
