SpectraSuite Data File
++++++++++++++++++++++++++++++++++++
Date: Wed Feb 01 15:20:46 EET 2017
User: optolab
Spectrometer Serial Number: USB4C02475
Spectrometer Channel: 0
Integration Time (usec): 100000
Spectra Averaged: 1
Boxcar Smoothing: 0
Correct for Electrical Dark: No
Strobe/Lamp Enabled: No
Correct for Detector Non-linearity: No
Correct for Stray Light: No
Number of Pixels in Spectrum: 3648
>>>>>Begin Spectral Data<<<<<
344,91	1058,800
345,13	1058,800
345,35	1058,800
345,57	1013,745
345,79	1093,615
346,00	1402,859
346,22	1275,885
346,44	1314,796
346,66	1302,508
346,87	1243,117
347,09	1290,220
347,31	1251,309
347,53	1241,069
347,74	1368,043
347,96	1343,468
348,18	1251,309
348,40	1257,453
348,61	1273,837
348,83	1376,235
349,05	1396,715
349,27	1288,172
349,48	1277,932
349,70	1298,412
349,92	1341,420
350,14	1353,707
350,35	1370,091
350,57	1392,619
350,79	1343,468
351,01	1314,796
351,22	1349,611
351,44	1368,043
351,66	1214,445
351,87	1411,050
352,09	1472,490
352,31	1472,490
352,53	1423,338
352,74	1404,907
352,96	1368,043
353,18	1308,652
353,40	1339,372
353,61	1345,515
353,83	1396,715
354,05	1390,571
354,26	1310,700
354,48	1402,859
354,70	1290,220
354,92	1343,468
355,13	1392,619
355,35	1406,955
355,57	1341,420
355,78	1374,187
356,00	1374,187
356,22	1312,748
356,44	1386,475
356,65	1404,907
356,87	1380,331
357,09	1390,571
357,30	1329,132
357,52	1392,619
357,74	1333,228
357,95	1337,324
358,17	1388,523
358,39	1372,139
358,60	1345,515
358,82	1329,132
359,04	1392,619
359,26	1271,789
359,47	1329,132
359,69	1431,530
359,91	1343,468
360,12	1402,859
360,34	1345,515
360,56	1265,645
360,77	1316,844
360,99	1398,763
361,21	1322,988
361,42	1339,372
361,64	1468,394
361,86	1421,290
362,07	1298,412
362,29	1374,187
362,51	1306,604
362,72	1322,988
362,94	1353,707
363,16	1417,194
363,37	1318,892
363,59	1351,659
363,81	1314,796
364,02	1464,298
364,24	1296,364
364,46	1378,283
364,67	1357,803
364,89	1294,316
365,11	1384,427
365,32	1376,235
365,54	1388,523
365,76	1390,571
365,97	1394,667
366,19	1413,098
366,41	1292,268
366,62	1443,818
366,84	1325,036
367,05	1325,036
367,27	1296,364
367,49	1284,076
367,70	1372,139
367,92	1374,187
368,14	1378,283
368,35	1368,043
368,57	1275,885
368,79	1357,803
369,00	1349,611
369,22	1296,364
369,43	1402,859
369,65	1406,955
369,87	1322,988
370,08	1456,106
370,30	1353,707
370,51	1325,036
370,73	1345,515
370,95	1378,283
371,16	1333,228
371,38	1390,571
371,60	1320,940
371,81	1472,490
372,03	1382,379
372,24	1363,947
372,46	1421,290
372,68	1353,707
372,89	1308,652
373,11	1341,420
373,32	1359,851
373,54	1337,324
373,76	1337,324
373,97	1275,885
374,19	1400,811
374,40	1404,907
374,62	1314,796
374,84	1314,796
375,05	1267,693
375,27	1413,098
375,48	1275,885
375,70	1341,420
375,92	1359,851
376,13	1384,427
376,35	1359,851
376,56	1259,501
376,78	1368,043
376,99	1308,652
377,21	1372,139
377,43	1349,611
377,64	1421,290
377,86	1388,523
378,07	1316,844
378,29	1345,515
378,51	1308,652
378,72	1374,187
378,94	1259,501
379,15	1316,844
379,37	1304,556
379,58	1409,002
379,80	1304,556
380,01	1351,659
380,23	1329,132
380,45	1331,180
380,66	1349,611
380,88	1361,899
381,09	1392,619
381,31	1466,346
381,52	1363,947
381,74	1318,892
381,95	1353,707
382,17	1345,515
382,39	1363,947
382,60	1439,722
382,82	1294,316
383,03	1314,796
383,25	1269,741
383,46	1390,571
383,68	1314,796
383,89	1423,338
384,11	1345,515
384,32	1253,357
384,54	1331,180
384,76	1312,748
384,97	1341,420
385,19	1218,541
385,40	1376,235
385,62	1382,379
385,83	1386,475
386,05	1314,796
386,26	1322,988
386,48	1322,988
386,69	1314,796
386,91	1341,420
387,12	1335,276
387,34	1349,611
387,55	1232,877
387,77	1228,781
387,98	1273,837
388,20	1400,811
388,41	1339,372
388,63	1370,091
388,84	1404,907
389,06	1386,475
389,27	1306,604
389,49	1290,220
389,70	1400,811
389,92	1351,659
390,13	1347,563
390,35	1263,597
390,56	1392,619
390,78	1298,412
390,99	1308,652
391,21	1361,899
391,42	1365,995
391,64	1312,748
391,85	1343,468
392,07	1314,796
392,28	1343,468
392,50	1380,331
392,71	1220,589
392,93	1286,124
393,14	1308,652
393,36	1419,242
393,57	1429,482
393,79	1365,995
394,00	1333,228
394,22	1320,940
394,43	1337,324
394,65	1415,146
394,86	1292,268
395,08	1261,549
395,29	1304,556
395,50	1435,626
395,72	1284,076
395,93	1333,228
396,15	1425,386
396,36	1339,372
396,58	1380,331
396,79	1365,995
397,01	1329,132
397,22	1339,372
397,44	1349,611
397,65	1331,180
397,87	1232,877
398,08	1386,475
398,29	1312,748
398,51	1458,154
398,72	1302,508
398,94	1398,763
399,15	1304,556
399,37	1378,283
399,58	1304,556
399,80	1249,261
400,01	1343,468
400,22	1382,379
400,44	1402,859
400,65	1384,427
400,87	1357,803
401,08	1388,523
401,30	1300,460
401,51	1361,899
401,72	1386,475
401,94	1298,412
402,15	1310,700
402,37	1327,084
402,58	1259,501
402,80	1380,331
403,01	1273,837
403,22	1318,892
403,44	1345,515
403,65	1357,803
403,87	1294,316
404,08	1306,604
404,30	1329,132
404,51	1312,748
404,72	1409,002
404,94	1415,146
405,15	1419,242
405,37	1363,947
405,58	1345,515
405,79	1357,803
406,01	1363,947
406,22	1308,652
406,44	1294,316
406,65	1376,235
406,86	1404,907
407,08	1363,947
407,29	1404,907
407,51	1357,803
407,72	1484,777
407,93	1427,434
408,15	1482,729
408,36	1382,379
408,58	1400,811
408,79	1497,065
409,00	1394,667
409,22	1421,290
409,43	1378,283
409,64	1570,792
409,86	1515,497
410,07	1466,346
410,29	1445,866
410,50	1458,154
410,71	1517,545
410,93	1556,456
411,14	1449,962
411,35	1597,416
411,57	1503,209
411,78	1521,641
412,00	1535,977
412,21	1634,279
412,42	1593,320
412,64	1726,438
412,85	1593,320
413,06	1626,087
413,28	1742,821
413,49	1673,190
413,70	1765,349
413,92	1759,205
414,13	1710,054
414,34	1726,438
414,56	1877,987
414,77	1724,390
414,98	1839,076
415,20	1857,508
415,41	1884,131
415,63	1961,954
415,84	1953,762
416,05	2011,105
416,27	2004,961
416,48	1953,762
416,69	2050,017
416,91	2041,825
417,12	1976,290
417,33	2162,655
417,55	2240,478
417,76	2219,998
417,97	2226,142
418,19	2316,253
418,40	2217,950
418,61	2322,397
418,83	2404,315
419,04	2541,529
419,25	2598,872
419,46	2543,577
419,68	2508,762
419,89	2676,695
420,10	2721,750
420,32	2914,260
420,53	2779,094
420,74	2846,677
420,96	2842,581
421,17	2949,075
421,38	3106,769
421,60	3110,865
421,81	3063,761
422,02	3223,503
422,23	3452,875
422,45	3436,492
422,66	3563,466
422,87	3551,178
423,09	3801,030
423,30	3723,207
423,51	3864,517
423,73	3921,860
423,94	4147,137
424,15	4169,664
424,36	4169,664
424,58	4505,531
424,79	4491,195
425,00	4556,730
425,22	4632,505
425,43	4890,549
425,64	4913,077
425,85	4982,708
426,07	5177,265
426,28	5263,280
426,49	5369,774
426,71	5705,641
426,92	5906,342
427,13	5885,862
427,34	6170,530
427,56	6162,338
427,77	6537,116
427,98	6436,766
428,19	6657,946
428,41	6739,865
428,62	6733,721
428,83	7278,481
429,04	7245,713
429,26	7587,724
429,47	7671,691
429,68	7862,152
429,89	7751,562
430,11	8335,233
430,32	8249,218
430,53	8699,771
430,74	8542,078
430,96	9043,830
431,17	9164,660
431,38	9332,594
431,59	9863,018
431,81	9756,523
432,02	10051,431
432,23	10475,360
432,44	10620,766
432,66	10889,050
432,87	10796,891
433,08	11325,267
433,29	12001,097
433,51	11962,185
433,72	12629,823
433,93	12468,034
434,14	13147,959
434,35	13160,247
434,57	13768,494
434,78	13764,398
434,99	14049,066
435,20	14561,058
435,42	15017,755
435,63	15398,677
435,84	15587,090
436,05	15933,197
436,26	16512,772
436,48	16932,606
436,69	17381,111
436,90	17766,129
437,11	18425,575
437,32	18489,062
437,54	19381,976
437,75	19799,762
437,96	19883,729
438,17	20870,850
438,38	20897,473
438,60	21618,358
438,81	22036,144
439,02	22423,210
439,23	23234,205
439,44	24176,271
439,66	24088,208
439,87	24686,215
440,08	25167,488
440,29	25241,215
440,50	25878,133
440,72	26574,442
440,93	27280,992
441,14	27342,431
441,35	28384,847
441,56	28737,098
441,77	30176,820
441,99	30264,882
442,20	30455,343
442,41	30486,063
442,62	31260,195
442,83	31376,929
443,04	31684,125
443,26	32480,784
443,47	32529,936
443,68	33484,289
443,89	34102,776
444,10	33725,949
444,31	33824,252
444,53	33586,688
444,74	34944,491
444,95	35110,376
445,16	34860,524
445,37	35065,321
445,58	36257,239
445,80	35392,996
446,01	36011,482
446,22	36138,457
446,43	36158,936
446,64	35773,918
446,85	35964,379
447,06	36240,855
447,28	36609,489
447,49	36339,158
447,70	36003,291
447,91	35771,870
448,12	35534,306
448,33	36638,161
448,54	36099,545
448,76	35945,948
448,97	36302,294
449,18	35114,472
449,39	34608,624
449,60	35272,166
449,81	34964,970
450,02	34596,336
450,23	34858,476
450,45	34811,373
450,66	34287,093
450,87	34612,720
451,08	33592,831
451,29	33644,031
451,50	32884,234
451,71	33459,713
451,92	33205,765
452,13	32386,578
452,35	32714,253
452,56	33156,614
452,77	32617,998
452,98	32689,677
453,19	31917,593
453,40	33031,688
453,61	31821,338
453,82	32704,013
454,03	32386,578
454,25	32411,153
454,46	31933,977
454,67	32347,666
454,88	33437,186
455,09	33637,887
455,30	32695,821
455,51	32599,567
455,72	33414,658
455,93	33320,452
456,14	34702,830
456,35	33916,410
456,56	34192,886
456,78	34866,668
456,99	34438,642
457,20	35100,136
457,41	36306,390
457,62	36246,999
457,83	36574,674
458,04	36507,091
458,25	37764,544
458,46	38487,477
458,67	39042,476
458,88	38948,270
459,09	40222,106
459,30	40478,102
459,51	41153,932
459,73	41106,829
459,94	42065,278
460,15	43122,030
460,36	43486,568
460,57	45696,327
460,78	45667,655
460,99	45833,541
461,20	46656,824
461,41	46204,223
461,62	47183,152
461,83	48551,195
462,04	48694,553
462,25	48680,217
462,46	50076,932
462,67	51416,303
462,88	50894,071
463,09	51045,621
463,30	50982,134
463,51	52776,155
463,72	53013,719
463,93	53157,077
464,15	52282,594
464,36	54668,478
464,57	54852,795
464,78	54838,459
464,99	54957,241
465,20	55823,532
465,41	56161,447
465,62	56267,941
465,83	57756,815
466,04	56317,093
466,25	57363,605
466,46	56870,044
466,67	56691,871
466,88	56921,243
467,09	56853,660
467,30	58072,202
467,51	57119,896
467,72	58057,866
467,93	55585,968
468,14	56685,727
468,35	58049,674
468,56	57281,686
468,77	57943,180
468,98	57031,834
469,19	57511,058
469,40	56435,875
469,61	55778,477
469,82	57363,605
470,03	55864,492
470,24	55196,854
470,45	56718,495
470,66	54985,913
470,87	55489,713
471,08	55311,540
471,29	55372,979
471,50	54127,814
471,71	54910,138
471,92	54746,301
472,13	53460,176
472,34	53636,302
472,55	53632,206
472,76	52196,580
472,97	52374,753
473,18	52688,092
473,39	52233,443
473,60	52192,484
473,81	51557,613
474,01	50423,039
474,22	50849,016
474,43	50885,880
474,64	50185,474
474,85	49077,523
475,06	49966,342
475,27	49499,405
475,48	48952,597
475,69	49274,128
475,90	49257,744
476,11	48020,771
476,32	48053,539
476,53	48012,579
476,74	47852,838
476,95	47275,311
477,16	48270,623
477,37	47967,524
477,58	48004,388
477,79	47101,233
478,00	47635,753
478,21	47467,820
478,41	47494,443
478,62	47715,624
478,83	47684,904
479,04	47144,241
479,25	47189,296
479,46	47590,698
479,67	47134,001
479,88	46964,019
480,09	47207,728
480,30	47512,875
480,51	46787,894
480,72	47609,130
480,93	47775,015
481,14	47703,336
481,34	47830,310
481,55	47482,155
481,76	47869,222
481,97	48119,074
482,18	48432,413
482,39	48366,878
482,60	48397,598
482,81	48524,572
483,02	49222,929
483,23	48782,616
483,44	48905,494
483,65	49065,235
483,85	48594,202
484,06	48723,225
484,27	50033,925
484,48	49104,147
484,69	49978,629
484,90	50334,976
485,11	49992,965
485,32	50023,685
485,53	50515,197
485,73	50179,330
485,94	50330,880
486,15	50763,001
486,36	50562,300
486,57	51045,621
486,78	50883,832
486,99	51399,920
487,20	51657,964
487,41	51117,300
487,61	51672,300
487,82	52022,502
488,03	51322,097
488,24	51356,912
488,45	51504,366
488,66	52298,978
488,87	52088,037
489,08	52448,480
489,28	52528,350
489,49	52696,284
489,70	52964,568
489,91	53058,774
490,12	53073,110
490,33	53101,782
490,54	53701,837
490,74	53445,840
490,95	54248,644
491,16	54502,592
491,37	54033,608
491,58	54762,684
491,79	54729,917
492,00	54379,714
492,20	54881,467
492,41	54994,105
492,62	55563,440
492,83	55770,285
493,04	55483,569
493,25	55661,743
493,45	55504,049
493,66	56366,244
493,87	55831,724
494,08	56681,631
494,29	56749,214
494,50	56857,756
494,70	56679,583
494,91	56368,292
495,12	57040,026
495,33	56720,542
495,54	57730,191
495,75	57382,036
495,95	57683,088
496,16	57179,288
496,37	57355,413
496,58	56982,682
496,79	57037,978
496,99	56765,598
497,20	56929,435
497,41	56968,347
497,62	57339,029
497,83	56843,421
498,04	57646,224
498,24	57418,900
498,45	57617,553
498,66	57523,346
498,87	57781,390
499,08	57642,128
499,28	57164,952
499,49	57474,195
499,70	57265,302
499,91	57357,461
500,12	57783,438
500,32	57468,051
500,53	57439,380
500,74	57412,756
500,95	57818,254
501,15	57054,361
501,36	57119,896
501,57	56659,103
501,78	57492,627
501,99	56513,698
502,19	57080,985
502,40	57250,966
502,61	56331,428
502,82	56892,572
503,02	56822,941
503,23	56476,834
503,44	55932,075
503,65	56351,908
503,86	56360,100
504,06	56269,989
504,27	55760,045
504,48	55493,809
504,69	56030,377
504,89	55254,197
505,10	55495,857
505,31	55370,931
505,52	55479,473
505,72	55002,297
505,93	54944,954
506,14	54621,375
506,35	54414,530
506,55	55047,352
506,76	54543,552
506,97	54109,382
507,18	54230,212
507,38	53867,722
507,59	54645,950
507,80	54314,179
508,01	54342,851
508,21	54596,799
508,42	54140,102
508,63	53634,254
508,84	53918,921
509,04	53238,996
509,25	53202,132
509,46	53830,859
509,67	53638,350
509,87	53310,675
510,08	53073,110
510,29	52952,280
510,49	53224,660
510,70	52798,682
510,91	52997,335
511,12	52790,490
511,32	52653,277
511,53	53286,099
511,74	52993,239
511,94	52686,044
512,15	53173,461
512,36	52329,698
512,57	52983,000
512,77	51995,879
512,98	52741,339
513,19	52014,310
513,39	52491,487
513,60	52372,705
513,81	52204,771
514,01	52104,421
514,22	51971,303
514,43	52350,177
514,64	51971,303
514,84	51662,060
515,05	52110,565
515,26	52167,908
515,46	51920,104
515,67	51838,185
515,88	52344,033
516,08	52036,838
516,29	52606,173
516,50	52479,199
516,70	52597,981
516,91	52743,387
517,12	52493,535
517,32	52630,749
517,53	52389,089
517,74	52002,022
517,95	52626,653
518,15	52681,948
518,36	52331,745
518,57	52856,025
518,77	51866,857
518,98	52106,469
519,19	52454,624
519,39	52268,258
519,60	52151,524
519,80	52501,727
520,01	51930,344
520,22	51938,535
520,42	51991,783
520,63	52415,712
520,84	51936,488
521,04	51862,761
521,25	52063,462
521,46	52305,122
521,66	51860,713
521,87	52014,310
522,08	51705,067
522,28	51840,233
522,49	52384,993
522,70	52155,620
522,90	52004,070
523,11	51551,469
523,31	51522,798
523,52	52065,510
523,73	51219,698
523,93	52296,930
524,14	51502,318
524,35	52034,790
524,55	52059,366
524,76	51805,418
524,97	52088,037
525,17	51776,746
525,38	51793,130
525,58	52206,819
525,79	52430,048
526,00	51733,739
526,20	52010,214
526,41	51719,403
526,61	51700,971
526,82	51328,241
527,03	51580,141
527,23	52047,078
527,44	51735,787
527,64	51215,602
527,85	51483,886
528,06	51950,823
528,26	51680,491
528,47	51553,517
528,68	51522,798
528,88	52055,270
529,09	51795,178
529,29	51492,078
529,50	51166,451
529,70	51301,617
529,91	51932,392
530,12	51795,178
530,32	52270,306
530,53	51844,329
530,73	52090,085
530,94	51551,469
531,15	51733,739
531,35	52075,749
531,56	51553,517
531,76	51864,809
531,97	51995,879
532,17	51068,149
532,38	52708,572
532,59	51354,864
532,79	51975,399
533,00	51465,455
533,20	51852,521
533,41	51045,621
533,61	51522,798
533,82	51655,916
534,03	51707,115
534,23	51311,857
534,44	51066,101
534,64	51444,975
534,85	51567,853
535,05	51176,691
535,26	51152,115
535,46	51234,034
535,67	51270,898
535,88	51158,259
536,08	51604,717
536,29	50949,367
536,49	51356,912
536,70	51416,303
536,90	51526,894
537,11	51432,687
537,31	51639,532
537,52	51487,982
537,72	51389,680
537,93	51657,964
538,13	52352,225
538,34	51438,831
538,55	51369,200
538,75	52110,565
538,96	51496,174
539,16	51956,967
539,37	51797,226
539,57	51377,392
539,78	51868,905
539,98	51811,561
540,19	52227,299
540,39	51969,255
540,60	52051,174
540,80	51991,783
541,01	51944,679
541,21	51449,071
541,42	52466,911
541,62	52362,465
541,83	52221,155
542,03	52126,949
542,24	52184,292
542,44	52319,458
542,65	52698,332
542,85	52202,723
543,06	52657,372
543,26	52501,727
543,47	52397,280
543,67	52489,439
543,88	52401,376
544,08	52059,366
544,29	52151,524
544,49	52272,354
544,70	52700,380
544,90	52311,266
545,11	52251,875
545,31	52378,849
545,52	52778,203
545,72	52800,730
545,93	52528,350
546,13	52847,834
546,34	52905,177
546,54	53494,992
546,75	53179,605
546,95	52638,941
547,15	52733,147
547,36	52520,159
547,56	53765,324
547,77	53382,353
547,97	53060,822
548,18	52888,793
548,38	53529,807
548,59	53613,774
548,79	53136,597
549,00	53167,317
549,20	52909,273
549,41	53071,062
549,61	53345,490
549,81	53118,165
550,02	53683,405
550,22	53937,353
550,43	53220,564
550,63	53443,792
550,84	53720,268
551,04	53562,575
551,25	53560,527
551,45	54152,390
551,65	53677,261
551,86	53568,719
552,06	53837,002
552,27	53529,807
552,47	53667,021
552,68	53710,028
552,88	54387,906
553,08	54312,131
553,29	53761,228
553,49	54457,537
553,70	54176,965
553,90	54222,021
554,11	54039,751
554,31	54553,792
554,51	54088,903
554,72	54443,201
554,92	54547,648
555,13	54623,422
555,33	54584,511
555,53	54156,486
555,74	54609,087
555,94	54721,725
556,15	54568,127
556,35	54561,983
556,56	54557,888
556,76	54865,083
556,96	55108,791
557,17	55125,175
557,37	55041,208
557,58	54895,802
557,78	55131,319
557,98	54985,913
558,19	55209,142
558,39	54897,850
558,59	55026,872
558,80	55430,322
559,00	55137,463
559,21	54627,518
559,41	55458,994
559,61	55778,477
559,82	54965,433
560,02	55104,695
560,23	55172,278
560,43	55424,178
560,63	55604,400
560,84	55551,152
561,04	55454,898
561,24	55649,455
561,45	56095,912
561,65	55209,142
561,85	55680,174
562,06	56065,192
562,26	55704,750
562,47	55372,979
562,67	55880,875
562,87	55635,119
563,08	55917,739
563,28	55772,333
563,48	56237,222
563,69	56032,425
563,89	55850,156
564,09	56018,089
564,30	55950,506
564,50	55815,340
564,70	55704,750
564,91	55735,470
565,11	56290,469
565,31	55964,842
565,52	56528,033
565,72	56317,093
565,92	55737,518
566,13	56444,067
566,33	55987,370
566,53	55852,204
566,74	56044,713
566,94	56214,694
567,14	56210,598
567,35	56659,103
567,55	56321,189
567,75	55755,949
567,96	56384,676
568,16	56274,085
568,36	56597,664
568,57	55645,359
568,77	56243,366
568,97	56061,097
569,18	55975,082
569,38	55549,104
569,58	56622,240
569,79	56159,399
569,99	56200,358
570,19	56061,097
570,39	55954,602
570,60	55807,148
570,80	56505,506
571,00	55772,333
571,21	56366,244
571,41	56085,672
571,61	56341,668
571,82	55946,410
572,02	56485,026
572,22	56169,639
572,42	56413,347
572,63	57019,546
572,83	56564,897
573,03	56081,576
573,24	56763,550
573,44	56312,997
573,64	56722,590
573,84	56777,886
574,05	56738,974
574,25	56405,155
574,45	57015,450
574,66	56810,653
574,86	56911,004
575,06	57025,690
575,26	57054,361
575,47	57326,741
575,67	57199,767
575,87	56302,757
576,07	56978,587
576,28	56865,948
576,48	57089,177
576,68	57232,535
576,88	57339,029
577,09	57171,096
577,29	57918,604
577,49	56269,989
577,69	57427,092
577,90	57023,642
578,10	57652,368
578,30	57693,328
578,50	57400,468
578,71	57363,605
578,91	57308,310
579,11	57212,055
579,31	57455,763
579,52	57089,177
579,72	57906,316
579,92	58262,663
580,12	57402,516
580,33	57238,679
580,53	58043,530
580,73	57334,933
580,93	57871,501
581,13	57414,804
581,34	57349,269
581,54	57785,486
581,74	57511,058
581,94	57115,800
582,15	57517,202
582,35	57148,568
582,55	57715,855
582,75	57732,239
582,95	57562,258
583,16	57746,575
583,36	57574,545
583,56	57400,468
583,76	57945,228
583,96	57986,187
584,17	57375,892
584,37	57666,704
584,57	57834,638
584,77	57896,077
584,97	57853,069
585,18	57736,335
585,38	57635,985
585,58	57896,077
585,78	57678,992
585,98	58012,811
586,19	57830,542
586,39	58326,150
586,59	57928,844
586,79	58082,442
586,99	57834,638
587,20	58307,718
587,40	57824,398
587,60	57801,870
587,80	57906,316
588,00	57977,995
588,20	58387,589
588,41	57605,265
588,61	57836,685
588,81	57851,021
589,01	57126,040
589,21	57902,220
589,41	58074,250
589,62	57422,996
589,82	57343,125
590,02	58066,058
590,22	57392,276
590,42	57220,247
590,62	57212,055
590,83	57660,560
591,03	57617,553
591,23	57521,298
591,43	57930,892
591,63	57689,232
591,83	58070,154
592,03	58393,733
592,24	58207,368
592,44	57996,427
592,64	58584,194
592,84	57803,918
593,04	58438,788
593,24	58565,762
593,44	58145,929
593,65	58113,161
593,85	58283,143
594,05	58346,630
594,25	58545,283
594,45	58299,526
594,65	58793,087
594,85	58420,357
595,06	58365,061
595,26	58537,091
595,46	58145,929
595,66	58600,578
595,86	58403,973
596,06	58039,434
596,26	58299,526
596,46	58326,150
596,66	58100,873
596,87	57891,981
597,07	58018,955
597,27	57879,693
597,47	57222,295
597,67	58129,545
597,87	58100,873
598,07	58021,003
598,27	57599,121
598,47	57500,819
598,67	57437,332
598,88	57265,302
599,08	57617,553
599,28	56824,989
599,48	57234,583
599,68	57040,026
599,88	57193,623
600,08	57033,882
600,28	57066,649
600,48	56648,864
600,68	57027,738
600,88	56765,598
601,09	56712,351
601,29	57310,358
601,49	56405,155
601,69	56867,996
601,89	56556,705
602,09	56089,768
602,29	56738,974
602,49	56476,834
602,69	56493,218
602,89	56093,864
603,09	56259,750
603,29	55706,798
603,49	56186,023
603,69	55786,669
603,90	55884,971
604,10	55700,654
604,30	55430,322
604,50	55839,916
604,70	55266,485
604,90	55430,322
605,10	55248,053
605,30	54901,946
605,50	55112,887
605,70	54498,496
605,90	54879,419
606,10	55082,168
606,30	54777,020
606,50	54445,249
606,70	54086,855
606,90	54324,419
607,10	54312,131
607,30	53863,626
607,50	54627,518
607,70	54203,589
607,90	54355,139
608,10	53425,361
608,30	54482,113
608,50	53890,250
608,70	54160,582
608,90	53753,036
609,11	53796,043
609,31	53820,619
609,51	53707,980
609,71	53533,903
609,91	53341,394
610,11	53834,955
610,31	53411,025
610,51	53638,350
610,71	53003,479
610,91	53314,770
611,11	53460,176
611,31	52843,738
611,51	53339,346
611,71	53193,940
611,91	53363,922
612,11	52776,155
612,31	53142,741
612,51	53603,534
612,71	52882,649
612,91	53152,981
613,11	53368,018
613,31	53290,195
613,51	53107,926
613,71	53286,099
613,91	53441,745
614,11	52673,756
614,31	53791,947
614,50	52683,996
614,70	53650,637
614,90	52972,760
615,10	53574,862
615,30	53378,258
615,50	53572,815
615,70	53703,885
615,90	53236,948
616,10	53560,527
616,30	53621,966
616,50	53812,427
616,70	53748,940
616,90	53269,715
617,10	53621,966
617,30	53300,435
617,50	53365,970
617,70	53214,420
617,90	52966,616
618,10	53439,697
618,30	53204,180
618,50	53529,807
618,70	53161,173
618,90	52524,255
619,10	53744,844
619,30	53011,671
619,49	52896,985
619,69	53140,693
619,89	53187,796
620,09	52839,642
620,29	52634,845
620,49	53017,815
620,69	52833,498
620,89	52831,450
621,09	53282,003
621,29	52890,841
621,49	53167,317
621,69	53861,578
621,89	53030,103
622,09	53664,973
622,29	53636,302
622,48	53251,283
622,68	53718,220
622,88	54193,349
623,08	54344,899
623,28	54420,674
623,48	53914,825
623,68	53681,357
623,88	54428,865
624,08	54357,187
624,28	54242,500
624,48	54684,862
624,67	54860,987
624,87	55043,256
625,07	55178,422
625,27	55372,979
625,47	55020,728
625,67	55055,544
625,87	55927,979
626,07	55962,794
626,27	55964,842
626,47	55860,396
626,66	56194,215
626,86	56485,026
627,06	55979,178
627,26	56792,221
627,46	56857,756
627,66	56505,506
627,86	56818,845
628,06	56405,155
628,25	57382,036
628,45	56913,052
628,65	56814,749
628,85	57218,199
629,05	56927,387
629,25	57468,051
629,45	57140,376
629,65	56765,598
629,84	56992,922
630,04	56630,432
630,24	56251,558
630,44	56442,019
630,64	55667,887
630,84	55282,868
631,04	55315,636
631,23	54764,732
631,43	54269,124
631,63	53722,316
631,83	53048,535
632,03	53144,789
632,23	52188,388
632,42	51729,643
632,62	51184,883
632,82	50482,430
633,02	49863,943
633,22	49118,482
633,42	48717,081
633,62	48082,210
633,81	47228,207
634,01	46912,820
634,21	46695,735
634,41	45700,423
634,61	45616,456
634,80	45061,456
635,00	44574,040
635,20	43572,583
635,40	43752,804
635,60	43009,392
635,80	42610,038
635,99	41747,843
636,19	41651,588
636,39	41397,640
636,59	41057,678
636,79	40945,039
636,98	40258,970
637,18	39876,000
637,38	39511,461
637,58	38876,591
637,78	39099,819
637,97	38100,411
638,17	37981,628
638,37	37762,496
638,57	37641,666
638,77	37211,592
638,96	36842,958
639,16	36754,895
639,36	36482,515
639,56	35982,811
639,76	35732,959
639,95	35313,125
640,15	35352,037
640,35	34938,347
640,55	34614,768
640,75	34684,399
640,94	34274,805
641,14	33861,115
641,34	33834,492
641,54	33533,440
641,73	33535,488
641,93	33222,149
642,13	32792,076
642,33	32523,792
642,53	32708,109
642,72	32476,688
642,92	32237,076
643,12	31915,545
643,32	31784,475
643,51	31227,428
643,71	31282,723
643,91	31184,420
644,11	30711,339
644,30	31264,291
644,50	30606,893
644,70	30375,472
644,90	30258,738
645,09	30060,085
645,29	30320,177
645,49	29716,027
645,69	30211,635
645,88	29664,827
646,08	29421,119
646,28	29439,551
646,48	29138,499
646,67	29138,499
646,87	29124,164
647,07	28702,282
647,26	28610,123
647,46	28468,814
647,66	28309,072
647,86	28161,618
648,05	28096,083
648,25	28026,452
648,45	27956,821
648,65	27934,294
648,84	27569,755
649,04	27461,213
649,24	27694,681
649,43	27455,069
649,63	27194,977
649,83	27410,014
650,03	27061,859
650,22	27006,564
650,42	27129,442
650,62	26895,974
650,81	26508,908
651,01	26787,431
651,21	27111,010
651,40	26578,538
651,60	26556,011
651,80	26183,280
652,00	26551,915
652,19	26666,601
652,39	26271,343
652,59	26467,948
652,78	26146,417
652,98	25878,133
653,18	25935,476
653,37	25683,576
653,57	25816,694
653,77	25712,248
653,96	25550,458
654,16	25910,901
654,36	25398,908
654,55	25468,539
654,75	25540,218
654,95	25206,399
655,14	25400,956
655,34	24907,396
655,54	25325,182
655,73	25147,008
655,93	25110,145
656,13	25106,049
656,32	25003,650
656,52	24692,359
656,72	24893,060
656,91	24909,444
657,11	25288,318
657,31	25114,241
657,50	24987,267
657,70	25079,425
657,90	24964,739
658,09	25048,706
658,29	24626,824
658,49	24983,171
658,68	24938,115
658,88	24743,558
659,07	24972,931
659,27	24936,068
659,47	24731,271
659,66	24772,230
659,86	24632,968
660,06	24667,784
660,25	24467,083
660,45	24606,345
660,64	24911,492
660,84	24989,315
661,04	24643,208
661,23	24770,182
661,43	24905,348
661,63	24665,736
661,82	24903,300
662,02	24381,068
662,21	24870,532
662,41	24610,440
662,61	24856,197
662,80	24491,658
663,00	24637,064
663,19	24549,001
663,39	24589,961
663,59	24675,975
663,78	24616,584
663,98	24770,182
664,17	24653,448
664,37	24604,297
664,57	24774,278
664,76	24751,750
664,96	24821,381
665,15	25054,850
665,35	24704,647
665,55	25183,872
665,74	25142,912
665,94	25009,794
666,13	25335,421
666,33	25079,425
666,53	25376,381
666,72	25316,990
666,92	25753,207
667,11	25486,971
667,31	25781,879
667,50	25808,502
667,70	26031,731
667,90	26140,273
668,09	25867,893
668,29	25910,901
668,48	26009,203
668,68	26367,598
668,87	26291,823
669,07	26332,782
669,26	26752,616
669,46	26672,745
669,66	26619,498
669,85	26453,612
670,05	26846,822
670,24	27100,770
670,44	26947,173
670,63	27068,003
670,83	26930,789
671,02	27289,184
671,22	27362,910
671,42	27680,346
671,61	27549,276
671,81	27799,128
672,00	28026,452
672,20	27895,382
672,39	28247,633
672,59	28634,699
672,78	28485,197
672,98	28616,267
673,17	28792,393
673,37	28593,740
673,56	29075,012
673,76	29498,942
673,95	29273,665
674,15	29582,909
674,34	29589,052
674,54	29636,156
674,73	30037,558
674,93	29898,296
675,13	30228,019
675,32	30459,439
675,52	30699,052
675,71	30979,623
675,91	31143,461
676,10	31526,431
676,30	31573,534
676,49	31397,409
676,69	31905,305
676,88	32093,718
677,08	32454,161
677,27	32101,910
677,47	32812,555
677,66	32732,685
677,86	33168,902
678,05	33392,130
678,24	33125,895
678,44	33564,160
678,63	33961,466
678,83	33717,758
679,02	33840,636
679,22	34199,030
679,41	34674,159
679,61	34498,034
679,80	34829,805
680,00	35237,350
680,19	35163,623
680,39	35446,243
680,58	35505,634
680,78	36156,888
680,97	36150,744
681,17	36416,980
681,36	36290,006
681,56	37119,434
681,75	37279,175
681,94	37438,917
682,14	37416,389
682,33	37920,189
682,53	38094,267
682,72	38368,695
682,92	38528,436
683,11	39386,535
683,31	39122,347
683,50	39511,461
683,69	39656,867
683,89	40078,748
684,08	40070,557
684,28	40486,294
684,47	41145,740
684,67	41131,404
684,86	41981,311
685,06	41676,164
685,25	42278,267
685,44	42194,300
685,64	43380,074
685,83	43249,004
686,03	43492,712
686,22	43973,985
686,42	44156,254
686,61	44651,863
686,80	44799,316
687,00	45014,353
687,19	45925,699
687,39	46183,743
687,58	46204,223
687,77	46339,389
687,97	47332,654
688,16	46886,197
688,36	47717,672
688,55	47621,417
688,74	48323,871
688,94	47901,989
689,13	48565,531
689,33	49210,641
689,52	49769,737
689,71	49685,770
689,91	50605,308
690,10	50863,352
690,30	50654,459
690,49	51080,437
690,68	51821,801
690,88	51647,724
691,07	52071,653
691,27	52094,181
691,46	51885,288
691,65	51977,447
691,85	52090,085
692,04	51971,303
692,23	52450,528
692,43	51504,366
692,62	51862,761
692,82	51776,746
693,01	51774,698
693,20	50472,190
693,40	50650,363
693,59	50691,322
693,78	50205,954
693,98	49685,770
694,17	49079,571
694,36	48596,250
694,56	48256,288
694,75	47689,000
694,94	47045,938
695,14	45837,637
695,33	45415,755
695,53	44821,844
695,72	43920,738
695,91	43550,055
696,11	42583,414
696,30	41272,714
696,49	40734,098
696,69	39681,442
696,88	38923,694
697,07	38211,001
697,27	37553,603
697,46	36246,999
697,65	35069,417
697,85	34725,358
698,04	33824,252
698,23	32531,984
698,43	31735,324
698,62	30529,070
698,81	29752,890
699,01	28956,230
699,20	28073,556
699,39	27522,652
699,58	26494,572
699,78	25611,897
699,97	24970,883
700,16	23981,714
700,36	23662,231
700,55	22986,401
700,74	22478,505
700,94	21796,531
701,13	21079,742
701,32	20620,997
701,52	20176,588
701,71	19457,751
701,90	18745,058
702,09	18976,478
702,29	18161,387
702,48	17407,734
702,67	17286,904
702,87	16488,196
703,06	16137,994
703,25	15591,186
703,44	15552,275
703,64	14759,711
703,83	14366,501
704,02	14143,272
704,22	13692,719
704,41	13522,738
704,60	13297,461
704,79	12934,971
704,99	12681,022
705,18	12275,525
705,37	11933,514
705,56	11761,485
705,76	11528,016
705,95	11390,802
706,14	11030,360
706,33	10680,157
706,53	10616,670
706,72	10569,567
706,91	10112,870
707,11	9856,874
707,30	9602,925
707,49	9570,158
707,68	9404,272
707,88	9189,236
708,07	9062,262
708,26	8918,904
708,45	8714,107
708,64	8638,332
708,84	8511,358
709,03	8300,417
709,22	8001,414
709,41	8107,908
709,61	7815,049
709,80	7663,499
709,99	7714,698
710,18	7681,931
710,38	7382,927
710,57	7206,802
710,76	6940,566
710,95	7147,411
711,14	6901,655
711,34	6909,847
711,53	6733,721
711,72	6659,994
711,91	6510,493
712,11	6444,958
712,30	6299,552
712,49	6248,353
712,68	6047,652
712,87	5978,021
713,07	5832,615
713,26	5998,500
713,45	5930,918
713,64	5830,567
713,83	5799,848
714,03	5607,338
714,22	5513,132
714,41	5586,859
714,60	5386,158
714,79	5377,966
714,99	5349,294
715,18	5210,032
715,37	5210,032
715,56	5140,402
715,75	5136,306
715,94	5169,073
716,14	5040,051
716,33	5007,284
716,52	4796,343
716,71	4872,118
716,90	4765,623
717,10	4820,918
717,29	4786,103
717,48	4683,705
717,67	4597,690
717,86	4548,539
718,05	4671,417
718,24	4581,306
718,44	4364,221
718,63	4403,133
718,82	4480,956
719,01	4444,092
719,20	4331,454
719,39	4265,919
719,59	4227,008
719,78	4214,720
719,97	4132,801
720,16	4241,343
720,35	4102,081
720,54	4110,273
720,73	4095,938
720,93	4016,067
721,12	4046,786
721,31	4034,498
721,50	3956,676
721,69	4093,890
721,88	3837,893
722,07	3944,388
722,27	3731,399
722,46	3731,399
722,65	3751,879
722,84	3786,694
723,03	3608,521
723,22	3690,440
723,41	3600,329
723,60	3665,864
723,79	3792,838
723,99	3561,418
724,18	3442,635
724,37	3667,912
724,56	3479,499
724,75	3456,971
724,94	3475,403
725,13	3534,794
725,32	3420,108
725,51	3444,683
725,71	3373,005
725,90	3362,765
726,09	3416,012
726,28	3358,669
726,47	3266,510
726,66	3383,244
726,85	3200,975
727,04	3155,920
727,23	3221,455
727,42	3241,935
727,61	3184,591
727,81	3184,591
728,00	3229,647
728,19	3057,617
728,38	3110,865
728,57	3133,392
728,76	3123,152
728,95	3080,145
729,14	3047,378
729,33	3035,090
729,52	2969,555
729,71	2957,267
729,90	2983,890
730,09	2949,075
730,28	2897,876
730,48	2998,226
730,67	2897,876
730,86	2934,739
731,05	2908,116
731,24	2856,916
731,43	2844,629
731,62	2797,525
731,81	2832,341
732,00	2830,293
732,19	2916,308
732,38	2766,806
732,57	2686,935
732,76	2807,765
732,95	2783,190
733,14	2785,238
733,33	2715,607
733,52	2834,389
733,71	2832,341
733,90	2666,455
734,09	2893,780
734,28	2648,024
734,47	2760,662
734,66	2686,935
734,85	2664,407
735,04	2658,263
735,23	2686,935
735,42	2570,201
735,61	2678,743
735,81	2658,263
736,00	2496,474
736,19	2553,817
736,38	2547,673
736,57	2598,872
736,76	2584,537
736,95	2471,898
737,14	2514,906
737,33	2416,603
737,52	2492,378
737,71	2519,002
737,90	2533,337
738,09	2521,050
738,28	2494,426
738,47	2519,002
738,66	2467,802
738,85	2412,507
739,04	2349,020
739,22	2406,363
739,41	2422,747
739,60	2447,323
739,79	2361,308
739,98	2375,644
740,17	2320,349
740,36	2316,253
740,55	2283,485
740,74	2426,843
740,93	2189,279
741,12	2342,876
741,31	2303,965
741,50	2342,876
741,69	2291,677
741,88	2252,766
742,07	2269,149
742,26	2349,020
742,45	2217,950
742,64	2277,341
742,83	2197,470
743,02	2330,588
743,21	2242,526
743,40	2256,862
743,59	2215,902
743,78	2066,400
743,97	2238,430
744,16	2115,552
744,34	2152,415
744,53	2232,286
744,72	2125,792
744,91	2181,087
745,10	2131,935
745,29	2107,360
745,48	2256,862
745,67	2164,703
745,86	2146,271
746,05	2113,504
746,24	2078,688
746,43	2029,537
746,62	2179,039
746,81	2066,400
747,00	2166,751
747,18	2099,168
747,37	2150,367
747,56	2154,463
747,75	2080,736
747,94	2084,832
748,13	2093,024
748,32	2119,648
748,51	2068,448
748,70	2109,408
748,89	2043,873
749,08	1972,194
749,26	2033,633
749,45	1996,770
749,64	2007,009
749,83	2017,249
750,02	1957,858
750,21	1961,954
750,40	2025,441
750,59	2086,880
750,78	1912,803
750,96	1947,618
751,15	1941,474
751,34	1929,187
751,53	2041,825
751,72	1941,474
751,91	1925,091
752,10	1933,282
752,29	1896,419
752,47	1923,043
752,66	1906,659
752,85	1865,700
753,04	1884,131
753,23	1875,939
753,42	1898,467
753,61	1896,419
753,80	1935,330
753,98	1865,700
754,17	1859,556
754,36	1884,131
754,55	1820,644
754,74	1884,131
754,93	1927,139
755,12	1945,570
755,30	1849,316
755,49	1877,987
755,68	1857,508
755,87	1892,323
756,06	1884,131
756,25	1810,404
756,43	1826,788
756,62	1826,788
756,81	1843,172
757,00	1923,043
757,19	1744,869
757,38	1806,308
757,56	1816,548
757,75	1800,165
757,94	1839,076
758,13	1871,843
758,32	1685,478
758,51	1753,061
758,69	1744,869
758,88	1826,788
759,07	1808,356
759,26	1687,526
759,45	1720,294
759,63	1703,910
759,82	1751,013
760,01	1849,316
760,20	1736,678
760,39	1722,342
760,57	1664,999
760,76	1691,622
760,95	1634,279
761,14	1669,095
761,33	1853,412
761,51	1755,109
761,70	1757,157
761,89	1718,246
762,08	1591,272
762,27	1761,253
762,45	1654,759
762,64	1800,165
762,83	1728,486
763,02	1644,519
763,21	1693,670
763,39	1683,430
763,58	1714,150
763,77	1744,869
763,96	1615,847
764,14	1662,951
764,33	1701,862
764,52	1652,711
764,71	1654,759
764,89	1671,142
765,08	1714,150
765,27	1734,630
765,46	1621,991
765,65	1687,526
765,83	1636,327
766,02	1658,855
766,21	1591,272
766,40	1693,670
766,58	1710,054
766,77	1609,703
766,96	1587,176
767,15	1605,608
767,33	1560,552
767,52	1581,032
767,71	1624,039
767,90	1589,224
768,08	1710,054
768,27	1640,423
768,46	1656,807
768,64	1587,176
768,83	1585,128
769,02	1568,744
769,21	1650,663
769,39	1540,072
769,58	1595,368
769,77	1703,910
769,96	1591,272
770,14	1595,368
770,33	1644,519
770,52	1685,478
770,70	1611,751
770,89	1519,593
771,08	1640,423
771,27	1552,360
771,45	1601,512
771,64	1552,360
771,83	1626,087
772,01	1576,936
772,20	1511,401
772,39	1624,039
772,57	1533,929
772,76	1605,608
772,95	1509,353
773,14	1599,464
773,32	1464,298
773,51	1581,032
773,70	1480,681
773,88	1578,984
774,07	1535,977
774,26	1542,120
774,44	1568,744
774,63	1486,825
774,82	1499,113
775,00	1566,696
775,19	1587,176
775,38	1497,065
775,56	1558,504
775,75	1564,648
775,94	1533,929
776,12	1527,785
776,31	1527,785
776,50	1552,360
776,68	1587,176
776,87	1550,312
777,06	1480,681
777,24	1507,305
777,43	1523,689
777,62	1490,921
777,80	1468,394
777,99	1570,792
778,18	1548,264
778,36	1468,394
778,55	1460,202
778,74	1474,538
778,92	1523,689
779,11	1464,298
779,29	1497,065
779,48	1531,881
779,67	1535,977
779,85	1406,955
780,04	1599,464
780,23	1505,257
780,41	1472,490
780,60	1605,608
780,79	1507,305
780,97	1466,346
781,16	1521,641
781,34	1447,914
781,53	1511,401
781,72	1482,729
781,90	1499,113
782,09	1470,442
782,28	1525,737
782,46	1525,737
782,65	1454,058
782,83	1409,002
783,02	1359,851
783,21	1406,955
783,39	1464,298
783,58	1538,025
783,76	1509,353
783,95	1509,353
784,14	1531,881
784,32	1431,530
784,51	1511,401
784,69	1470,442
784,88	1452,010
785,06	1499,113
785,25	1462,250
785,44	1470,442
785,62	1478,633
785,81	1396,715
785,99	1449,962
786,18	1437,674
786,37	1501,161
786,55	1449,962
786,74	1538,025
786,92	1478,633
787,11	1466,346
787,29	1525,737
787,48	1515,497
787,67	1447,914
787,85	1505,257
788,04	1513,449
788,22	1419,242
788,41	1509,353
788,59	1380,331
788,78	1521,641
788,96	1411,050
789,15	1427,434
789,34	1445,866
789,52	1486,825
789,71	1413,098
789,89	1376,235
790,08	1509,353
790,26	1439,722
790,45	1521,641
790,63	1404,907
790,82	1474,538
791,00	1468,394
791,19	1396,715
791,38	1464,298
791,56	1421,290
791,75	1398,763
791,93	1400,811
792,12	1515,497
792,30	1404,907
792,49	1439,722
792,67	1409,002
792,86	1433,578
793,04	1460,202
793,23	1482,729
793,41	1382,379
793,60	1435,626
793,78	1421,290
793,97	1441,770
794,15	1404,907
794,34	1384,427
794,52	1433,578
794,71	1462,250
794,89	1443,818
795,08	1476,585
795,26	1452,010
795,45	1400,811
795,63	1447,914
795,82	1396,715
796,00	1400,811
796,19	1441,770
796,37	1472,490
796,56	1374,187
796,74	1443,818
796,93	1359,851
797,11	1423,338
797,30	1411,050
797,48	1470,442
797,67	1423,338
797,85	1409,002
798,04	1386,475
798,22	1466,346
798,41	1462,250
798,59	1372,139
798,77	1361,899
798,96	1376,235
799,14	1478,633
799,33	1394,667
799,51	1425,386
799,70	1505,257
799,88	1413,098
800,07	1462,250
800,25	1503,209
800,44	1433,578
800,62	1435,626
800,80	1380,331
800,99	1425,386
801,17	1445,866
801,36	1480,681
801,54	1441,770
801,73	1449,962
801,91	1445,866
802,10	1429,482
802,28	1372,139
802,46	1431,530
802,65	1454,058
802,83	1437,674
803,02	1449,962
803,20	1472,490
803,39	1363,947
803,57	1394,667
803,75	1482,729
803,94	1427,434
804,12	1462,250
804,31	1433,578
804,49	1445,866
804,67	1427,434
804,86	1486,825
805,04	1417,194
805,23	1472,490
805,41	1409,002
805,59	1462,250
805,78	1425,386
805,96	1523,689
806,15	1488,873
806,33	1417,194
806,51	1445,866
806,70	1374,187
806,88	1478,633
807,07	1509,353
807,25	1564,648
807,43	1439,722
807,62	1468,394
807,80	1345,515
807,99	1452,010
808,17	1431,530
808,35	1515,497
808,54	1394,667
808,72	1464,298
808,90	1445,866
809,09	1478,633
809,27	1439,722
809,46	1454,058
809,64	1413,098
809,82	1519,593
810,01	1435,626
810,19	1484,777
810,37	1464,298
810,56	1417,194
810,74	1484,777
810,92	1507,305
811,11	1400,811
811,29	1484,777
811,48	1386,475
811,66	1421,290
811,84	1437,674
812,03	1499,113
812,21	1480,681
812,39	1503,209
812,58	1372,139
812,76	1523,689
812,94	1439,722
813,13	1540,072
813,31	1472,490
813,49	1454,058
813,68	1515,497
813,86	1462,250
814,04	1396,715
814,23	1396,715
814,41	1499,113
814,59	1490,921
814,78	1509,353
814,96	1482,729
815,14	1423,338
815,33	1521,641
815,51	1529,833
815,69	1396,715
815,87	1380,331
816,06	1542,120
816,24	1527,785
816,42	1529,833
816,61	1417,194
816,79	1427,434
816,97	1472,490
817,16	1523,689
817,34	1468,394
817,52	1470,442
817,70	1488,873
817,89	1497,065
818,07	1474,538
818,25	1441,770
818,44	1587,176
818,62	1462,250
818,80	1486,825
818,98	1449,962
819,17	1523,689
819,35	1550,312
819,53	1468,394
819,72	1597,416
819,90	1521,641
820,08	1525,737
820,26	1421,290
820,45	1458,154
820,63	1648,615
820,81	1490,921
820,99	1499,113
821,18	1574,888
821,36	1601,512
821,54	1617,895
821,73	1581,032
821,91	1593,320
822,09	1564,648
822,27	1673,190
822,46	1587,176
822,64	1538,025
822,82	1671,142
823,00	1566,696
823,19	1636,327
823,37	1568,744
823,55	1556,456
823,73	1533,929
823,91	1544,168
824,10	1576,936
824,28	1570,792
824,46	1599,464
824,64	1603,560
824,83	1556,456
825,01	1513,449
825,19	1521,641
825,37	1587,176
825,56	1593,320
825,74	1581,032
825,92	1570,792
826,10	1601,512
826,28	1574,888
826,47	1554,408
826,65	1587,176
826,83	1617,895
827,01	1546,216
827,19	1652,711
827,38	1654,759
827,56	1710,054
827,74	1695,718
827,92	1617,895
828,10	1617,895
828,29	1662,951
828,47	1660,903
828,65	1609,703
828,83	1603,560
829,01	1601,512
829,20	1617,895
829,38	1683,430
829,56	1675,238
829,74	1507,305
829,92	1681,382
830,10	1646,567
830,29	1615,847
830,47	1630,183
830,65	1667,047
830,83	1695,718
831,01	1712,102
831,20	1644,519
831,38	1642,471
831,56	1718,246
831,74	1626,087
831,92	1640,423
832,10	1640,423
832,29	1658,855
832,47	1712,102
832,65	1658,855
832,83	1681,382
833,01	1785,829
833,19	1640,423
833,37	1732,582
833,56	1656,807
833,74	1730,534
833,92	1705,958
834,10	1603,560
834,28	1828,836
834,46	1869,795
834,64	1714,150
834,83	1837,028
835,01	1841,124
835,19	1734,630
835,37	1734,630
835,55	1744,869
835,73	1771,493
835,91	1740,773
836,09	1804,260
836,28	1757,157
836,46	1761,253
836,64	1710,054
836,82	1783,781
837,00	1861,604
837,18	1728,486
837,36	1695,718
837,54	1847,268
837,72	1834,980
837,91	1773,541
838,09	1802,212
838,27	1806,308
838,45	1810,404
838,63	1875,939
838,81	1867,748
838,99	1794,021
839,17	1826,788
839,35	1955,810
839,53	1861,604
839,72	1853,412
839,90	1929,187
840,08	1830,884
840,26	1896,419
840,44	1927,139
840,62	1798,117
840,80	2021,345
840,98	1990,626
841,16	1931,235
841,34	1900,515
841,52	1896,419
841,70	1859,556
841,89	1839,076
842,07	1990,626
842,25	1951,714
842,43	1875,939
842,61	2025,441
842,79	1937,378
842,97	1880,035
843,15	1953,762
843,33	2035,681
843,51	2029,537
843,69	1972,194
843,87	2009,057
844,05	2043,873
844,23	2066,400
844,41	2064,352
844,59	1964,002
844,77	2025,441
844,95	1998,818
845,13	1980,386
845,31	1920,995
845,50	2054,113
845,68	2080,736
845,86	2035,681
846,04	2086,880
846,22	2076,640
846,40	2043,873
846,58	2011,105
846,76	2035,681
846,94	2144,223
847,12	2037,729
847,30	2078,688
847,48	2086,880
847,66	2101,216
847,84	2090,976
848,02	2185,183
848,20	2205,662
848,38	2232,286
848,56	2191,327
848,74	2199,518
848,92	2207,710
849,10	2158,559
849,28	2209,758
849,46	2205,662
849,64	2099,168
849,82	2168,799
850,00	2336,732
850,18	2158,559
850,36	2152,415
850,54	2176,991
850,72	2207,710
850,90	2150,367
851,08	2232,286
851,26	2260,958
851,44	2265,053
851,62	2166,751
851,80	2275,293
851,98	2267,101
852,16	2275,293
852,34	2246,622
852,52	2285,533
852,70	2316,253
852,87	2246,622
853,05	2246,622
853,23	2232,286
853,41	2361,308
853,59	2478,042
853,77	2314,205
853,95	2287,581
854,13	2295,773
854,31	2412,507
854,49	2334,684
854,67	2285,533
854,85	2344,924
855,03	2359,260
855,21	2455,515
855,39	2482,138
855,57	2273,245
855,75	2412,507
855,93	2412,507
856,11	2455,515
856,28	2389,980
856,46	2459,610
856,64	2523,098
856,82	2439,131
857,00	2414,555
857,18	2512,858
857,36	2537,433
857,54	2402,267
857,72	2469,850
857,90	2428,891
858,08	2619,352
858,26	2602,968
858,44	2584,537
858,61	2465,754
858,79	2504,666
858,97	2678,743
859,15	2652,120
859,33	2594,776
859,51	2564,057
859,69	2609,112
859,87	2625,496
860,05	2658,263
860,23	2621,400
860,40	2584,537
860,58	2691,031
860,76	2641,880
860,94	2650,072
861,12	2709,463
861,30	2695,127
861,48	2639,832
861,66	2586,585
861,84	2658,263
862,01	2791,381
862,19	2670,551
862,37	2639,832
862,55	2721,750
862,73	2756,566
862,91	2856,916
863,09	2791,381
863,27	2781,142
863,44	2811,861
863,62	2736,086
863,80	3008,466
863,98	2828,245
864,16	2934,739
864,34	2805,717
864,52	3057,617
864,69	2930,643
864,87	2928,595
865,05	2842,581
865,23	2934,739
865,41	2934,739
865,59	2875,348
865,76	2912,212
865,94	3053,521
866,12	2987,986
866,30	2994,130
866,48	2926,547
866,66	3028,946
866,83	3108,817
867,01	2924,499
867,19	3074,001
867,37	3037,138
867,55	3071,953
867,73	3047,378
867,90	2893,780
868,08	3235,791
868,26	3028,946
868,44	3106,769
868,62	3221,455
868,79	3215,311
868,97	3141,584
869,15	3104,721
869,33	3104,721
869,51	3168,208
869,69	3170,256
869,86	3215,311
870,04	3203,023
870,22	3233,743
870,40	3297,230
870,57	3182,543
870,75	3319,757
870,93	3184,591
871,11	3280,846
871,29	3190,735
871,46	3282,894
871,64	3276,750
871,82	3313,613
872,00	3370,957
872,18	3432,396
872,35	3538,890
872,53	3383,244
872,71	3391,436
872,89	3491,787
873,06	3459,019
873,24	3424,204
873,42	3577,801
873,60	3592,137
873,77	3618,761
873,95	3700,680
874,13	3569,610
874,31	3571,658
874,49	3542,986
874,66	3631,049
874,84	3563,466
875,02	3735,495
875,20	3739,591
875,37	3686,344
875,55	3735,495
875,73	3610,569
875,91	3891,141
876,08	3774,406
876,26	3758,023
876,44	3815,366
876,61	3917,764
876,79	3952,580
876,97	3837,893
877,15	3866,565
877,32	3829,702
877,50	3903,428
877,68	3782,598
877,86	3821,510
878,03	3999,683
878,21	4022,211
878,39	3948,484
878,56	3989,443
878,74	4102,081
878,92	3987,395
879,10	4036,546
879,27	4175,808
879,45	4261,823
879,63	4310,974
879,80	4229,055
879,98	4106,177
880,16	4278,207
880,34	4349,886
880,51	4317,118
880,69	4421,565
880,87	4341,694
881,04	4491,195
881,22	4347,838
881,40	4274,111
881,57	4310,974
881,75	4495,291
881,93	4800,439
882,10	4454,332
882,28	4614,074
882,46	4550,587
882,63	4519,867
882,81	4755,383
882,99	4489,148
883,16	4646,841
883,34	4845,494
883,52	4720,568
883,69	4700,088
883,87	4788,151
884,05	4790,199
884,22	4900,789
884,40	5038,003
884,58	4849,590
884,75	4990,900
884,93	5128,114
885,11	5046,195
885,28	4931,509
885,46	4945,845
885,64	5124,018
885,81	5078,962
885,99	5330,863
886,17	5332,911
886,34	5140,402
886,52	5306,287
886,70	5308,335
886,87	5197,745
887,05	5279,663
887,22	5275,568
887,40	5343,150
887,58	5304,239
887,75	5320,623
887,93	5248,944
888,11	5447,597
888,28	5562,283
888,46	5373,870
888,63	5537,708
888,81	5509,036
888,99	5662,634
889,16	5590,955
889,34	5627,818
889,51	5574,571
889,69	5699,497
889,87	5588,907
890,04	5826,471
890,22	5967,781
890,39	5861,287
890,57	5973,925
890,75	5975,973
890,92	5889,958
891,10	6021,028
891,27	5988,261
891,45	6191,010
891,63	5916,582
891,80	5990,309
891,98	6160,290
892,15	6043,556
892,33	6172,578
892,51	6162,338
892,68	6258,592
892,86	6416,286
893,03	6260,640
893,21	6406,046
893,38	6268,832
893,56	6281,120
893,74	6383,519
893,91	6393,758
894,09	6336,415
894,26	6500,253
894,44	6483,869
894,61	6420,382
894,79	6584,220
894,96	6573,980
895,14	6455,198
895,32	6713,242
895,49	6492,061
895,67	6500,253
895,84	6655,898
896,02	6668,186
896,19	6793,112
896,37	6668,186
896,54	6821,784
896,72	6827,928
896,89	6782,872
897,07	6893,463
897,25	6729,625
897,42	6850,455
897,60	6963,094
897,77	7016,341
897,95	6909,847
898,12	7092,116
898,30	7116,691
898,47	6909,847
898,65	7063,444
898,82	7184,274
899,00	7171,987
899,17	7241,618
899,35	7120,787
899,52	7227,282
899,70	7196,562
899,87	7131,027
900,05	7131,027
900,22	7235,474
900,40	7288,721
900,57	7255,953
900,75	7264,145
900,92	7264,145
901,10	7296,913
901,27	7321,488
901,45	7389,071
901,62	7370,640
901,80	7251,857
901,97	7186,322
902,15	7473,038
902,32	7436,175
902,50	7319,440
902,67	7339,920
902,85	7376,783
903,02	7743,370
903,20	7374,735
903,37	7323,536
903,54	7405,455
903,72	7559,053
903,89	7452,558
904,07	7495,566
904,24	7565,197
904,42	7694,219
904,59	7663,499
904,77	7593,868
904,94	7499,662
905,12	7544,717
905,29	7610,252
905,47	7608,204
905,64	7673,739
905,81	7813,001
905,99	7729,034
906,16	7819,145
906,34	7683,979
906,51	7896,968
906,69	7835,528
906,86	7692,171
907,03	7921,543
907,21	7950,215
907,38	8003,462
907,56	8062,853
907,73	7978,886
907,91	8191,875
908,08	7997,318
908,25	8044,421
908,43	8054,661
908,60	8140,676
908,78	8142,724
908,95	8081,285
909,13	8107,908
909,30	8099,716
909,47	8228,738
909,65	8339,329
909,82	8204,163
910,00	8277,890
910,17	8550,270
910,34	8417,152
910,52	8329,089
910,69	8396,672
910,87	8343,425
911,04	8470,399
911,21	8652,668
911,39	8574,845
911,56	8572,797
911,73	8460,159
911,91	8542,078
912,08	8613,757
912,26	8650,620
912,43	8859,513
912,60	8761,210
912,78	8726,395
912,95	8689,531
913,13	8920,952
913,30	8986,487
913,47	8814,458
913,65	9013,110
913,82	8992,631
913,99	9049,974
914,17	9326,450
914,34	9205,620
914,51	9172,852
914,69	9299,826
914,86	9197,428
915,03	9232,243
915,21	9318,258
915,38	9326,450
915,56	9453,424
915,73	9291,634
915,90	9359,217
916,08	9467,760
916,25	9785,195
916,42	9437,040
916,60	9768,811
916,77	9443,184
916,94	9666,412
917,12	9516,911
917,29	9594,734
917,46	9623,405
917,64	9860,970
917,81	9791,339
917,98	9860,970
918,16	9916,265
918,33	9906,025
918,50	9764,715
918,67	9856,874
918,85	9897,833
919,02	9883,497
919,19	10008,423
919,37	10000,231
919,54	10096,486
919,71	10104,678
919,89	10194,788
920,06	10381,154
920,23	10327,906
920,41	10252,132
920,58	10250,084
920,75	10340,194
920,92	10262,371
921,10	10350,434
921,27	10250,084
921,44	10587,998
921,62	10479,456
921,79	10678,109
921,96	10547,039
922,13	10821,467
922,31	10596,190
922,48	10645,342
922,65	10735,452
922,82	10807,131
923,00	10809,179
923,17	10927,961
923,34	10921,817
923,52	10825,563
923,69	10981,208
923,86	11040,600
924,03	10841,947
924,21	10893,146
924,38	10962,777
924,55	10901,338
924,72	10841,947
924,90	10985,304
925,07	11206,485
925,24	11003,736
925,41	11142,998
925,59	11325,267
925,76	11333,459
925,93	11132,758
926,10	11206,485
926,28	11267,924
926,45	11329,363
926,62	11194,197
926,79	11325,267
926,96	11292,500
927,14	11614,031
927,31	11564,880
927,48	11427,666
927,65	11532,112
927,83	11528,016
928,00	11747,149
928,17	11745,101
928,34	11491,153
928,51	11591,503
928,69	11757,389
928,86	11771,724
929,03	12011,337
929,20	11689,806
929,37	11988,809
929,55	11763,532
929,72	11906,890
929,89	11953,994
930,06	11949,898
930,23	11710,285
930,41	12005,193
930,58	11976,521
930,75	11917,130
930,92	12126,023
931,09	11937,610
931,27	12111,687
931,44	12136,263
931,61	11980,617
931,78	11841,355
931,95	11931,466
932,12	12187,462
932,30	12019,529
932,47	12003,145
932,64	12197,702
932,81	12097,351
932,98	11890,507
933,16	12267,333
933,33	11933,514
933,50	12166,982
933,67	12095,303
933,84	12181,318
934,01	12404,547
934,18	12285,765
934,36	12300,100
934,53	12209,990
934,70	12152,647
934,87	12177,222
935,04	12193,606
935,21	12300,100
935,38	12316,484
935,56	12427,074
935,73	12531,521
935,90	12402,499
936,07	12283,717
936,24	12398,403
936,41	12332,868
936,58	12476,226
936,76	12341,060
936,93	12439,362
937,10	12314,436
937,27	12439,362
937,44	12408,643
937,61	12275,525
937,78	12504,897
937,95	12273,477
938,13	12191,558
938,30	12373,827
938,47	12461,890
938,64	12234,565
938,81	12287,812
938,98	12363,587
939,15	12089,160
939,32	12040,008
939,49	12193,606
939,66	12062,536
939,84	12130,119
940,01	11855,691
940,18	11831,115
940,35	11908,938
940,52	11925,322
940,69	12025,672
940,86	11882,315
941,03	11800,396
941,20	11837,259
941,37	11925,322
941,54	11677,518
941,71	11687,758
941,89	11693,902
942,06	11601,743
942,23	11491,153
942,40	11468,625
942,57	11593,551
942,74	11355,987
942,91	11192,149
943,08	11145,046
943,25	11142,998
943,42	10973,017
943,59	11169,622
943,76	10774,364
943,93	10964,825
944,10	10872,666
944,27	10647,390
944,44	10985,304
944,61	10751,836
944,79	10413,921
944,96	10348,386
945,13	10465,120
945,30	10262,371
945,47	10194,788
945,64	10096,486
945,81	10211,172
945,98	10051,431
946,15	9797,482
946,32	9854,826
946,49	9748,331
946,66	9555,822
946,83	9432,944
947,00	9361,265
947,17	9181,044
947,34	9176,948
947,51	9215,859
947,68	8892,280
947,85	8890,232
948,02	8744,827
948,19	9031,542
948,36	8656,764
948,53	8523,646
948,70	8400,768
948,87	8372,096
949,04	8216,451
949,21	8079,237
949,38	8048,517
949,55	8042,373
949,72	7837,576
949,89	7651,211
950,06	7550,861
950,23	7726,986
950,40	7407,503
950,57	7331,728
950,74	7153,555
950,91	7159,699
951,08	6881,175
951,25	6901,655
951,42	6760,345
951,59	6676,378
951,76	6414,238
951,93	6383,519
952,10	6360,991
952,27	6369,183
952,44	6100,899
952,61	6148,002
952,77	6059,940
952,94	5834,663
953,11	5730,217
953,28	5633,962
953,45	5549,995
953,62	5463,981
953,79	5498,796
953,96	5404,590
954,13	5187,505
954,30	5283,759
954,47	4999,092
954,64	5066,675
954,81	4904,885
954,98	4904,885
955,15	4833,206
955,32	4648,889
955,49	4511,675
955,65	4566,970
955,82	4503,483
955,99	4306,878
956,16	4331,454
956,33	4202,432
956,50	3999,683
956,67	4159,425
956,84	4075,458
957,01	3872,709
957,18	3950,532
957,35	3837,893
957,52	3686,344
957,68	3665,864
957,85	3579,849
958,02	3631,049
958,19	3477,451
958,36	3461,067
958,53	3467,211
958,70	3520,458
958,87	3272,654
959,04	3381,196
959,21	3213,263
959,37	3127,248
959,54	3063,761
959,71	3080,145
959,88	3039,186
960,05	3024,850
960,22	2934,739
960,39	2752,470
960,56	2871,252
960,72	2828,245
960,89	2908,116
961,06	2799,573
961,23	2637,784
961,40	2750,422
961,57	2660,311
961,74	2535,385
961,90	2555,865
962,07	2557,913
962,24	2467,802
962,41	2504,666
962,58	2400,219
962,75	2375,644
962,92	2299,869
963,08	2383,836
963,25	2332,636
963,42	2133,983
963,59	2158,559
963,76	2068,448
963,93	2166,751
964,10	2142,175
964,26	2222,046
964,43	2019,297
964,60	2004,961
964,77	2050,017
964,94	1929,187
965,10	1871,843
965,27	1902,563
965,44	1959,906
965,61	1908,707
965,78	1957,858
965,95	1937,378
966,11	1910,755
966,28	1820,644
966,45	1843,172
966,62	1847,268
966,79	1763,301
966,95	1869,795
967,12	1896,419
967,29	1783,781
967,46	1773,541
967,63	1785,829
967,79	1681,382
967,96	1716,198
968,13	1652,711
968,30	1755,109
968,47	1671,142
968,63	1642,471
968,80	1677,286
968,97	1640,423
969,14	1634,279
969,31	1558,504
969,47	1587,176
969,64	1654,759
969,81	1615,847
969,98	1562,600
970,14	1531,881
970,31	1474,538
970,48	1542,120
970,65	1570,792
970,81	1564,648
970,98	1507,305
971,15	1472,490
971,32	1470,442
971,48	1478,633
971,65	1531,881
971,82	1435,626
971,99	1419,242
972,15	1460,202
972,32	1402,859
972,49	1515,497
972,66	1439,722
972,82	1419,242
972,99	1449,962
973,16	1507,305
973,33	1466,346
973,49	1499,113
973,66	1363,947
973,83	1515,497
974,00	1345,515
974,16	1380,331
974,33	1468,394
974,50	1468,394
974,67	1343,468
974,83	1417,194
975,00	1425,386
975,17	1447,914
975,33	1400,811
975,50	1421,290
975,67	1337,324
975,84	1314,796
976,00	1419,242
976,17	1411,050
976,34	1425,386
976,50	1433,578
976,67	1386,475
976,84	1304,556
977,00	1286,124
977,17	1302,508
977,34	1411,050
977,50	1368,043
977,67	1361,899
977,84	1322,988
978,01	1333,228
978,17	1435,626
978,34	1335,276
978,51	1341,420
978,67	1339,372
978,84	1413,098
979,01	1394,667
979,17	1345,515
979,34	1435,626
979,51	1314,796
979,67	1374,187
979,84	1406,955
980,01	1394,667
980,17	1267,693
980,34	1259,501
980,51	1382,379
980,67	1365,995
980,84	1292,268
981,01	1296,364
981,17	1273,837
981,34	1425,386
981,50	1314,796
981,67	1302,508
981,84	1322,988
982,00	1353,707
982,17	1351,659
982,34	1335,276
982,50	1386,475
982,67	1349,611
982,84	1306,604
983,00	1257,453
983,17	1337,324
983,33	1374,187
983,50	1302,508
983,67	1241,069
983,83	1261,549
984,00	1282,028
984,17	1322,988
984,33	1282,028
984,50	1234,925
984,66	1341,420
984,83	1365,995
985,00	1200,110
985,16	1345,515
985,33	1257,453
985,49	1343,468
985,66	1296,364
985,83	1351,659
985,99	1214,445
986,16	1302,508
986,32	1265,645
986,49	1290,220
986,66	1292,268
986,82	1296,364
986,99	1267,693
987,15	1187,822
987,32	1247,213
987,49	1322,988
987,65	1224,685
987,82	1341,420
987,98	1284,076
988,15	1337,324
988,31	1279,980
988,48	1300,460
988,65	1292,268
988,81	1253,357
988,98	1322,988
989,14	1239,021
989,31	1335,276
989,47	1349,611
989,64	1243,117
989,80	1232,877
989,97	1333,228
990,14	1212,398
990,30	1218,541
990,47	1267,693
990,63	1353,707
990,80	1288,172
990,96	1310,700
991,13	1341,420
991,29	1282,028
991,46	1325,036
991,62	1245,165
991,79	1214,445
991,95	1314,796
992,12	1263,597
992,29	1284,076
992,45	1318,892
992,62	1351,659
992,78	1351,659
992,95	1273,837
993,11	1286,124
993,28	1279,980
993,44	1214,445
993,61	1208,302
993,77	1230,829
993,94	1255,405
994,10	1204,206
994,27	1261,549
994,43	1292,268
994,60	1273,837
994,76	1275,885
994,93	1312,748
995,09	1296,364
995,26	1320,940
995,42	1269,741
995,59	1308,652
995,75	1337,324
995,92	1294,316
996,08	1343,468
996,25	1271,789
996,41	1247,213
996,58	1382,379
996,74	1320,940
996,91	1314,796
997,07	1292,268
997,23	1239,021
997,40	1247,213
997,56	1249,261
997,73	1349,611
997,89	1300,460
998,06	1232,877
998,22	1286,124
998,39	1275,885
998,55	1226,733
998,72	1232,877
998,88	1277,932
999,05	1095,663
999,21	1290,220
999,37	1286,124
999,54	1253,357
999,70	1177,582
999,87	1241,069
1000,03	1302,508
1000,20	1304,556
1000,36	1370,091
1000,52	1316,844
1000,69	1339,372
1000,85	1236,973
1001,02	1296,364
1001,18	1261,549
1001,35	1306,604
1001,51	1288,172
1001,67	1312,748
1001,84	1296,364
1002,00	1282,028
1002,17	1288,172
1002,33	1275,885
1002,50	1306,604
1002,66	1279,980
1002,82	1306,604
1002,99	1232,877
1003,15	1284,076
1003,32	1234,925
1003,48	1279,980
1003,64	1282,028
1003,81	1349,611
1003,97	1331,180
1004,14	1337,324
1004,30	1290,220
1004,46	1277,932
1004,63	1310,700
1004,79	1216,493
1004,95	1294,316
1005,12	1282,028
1005,28	1355,755
1005,45	1304,556
1005,61	1267,693
1005,77	1216,493
1005,94	1284,076
1006,10	1196,014
1006,26	1298,412
1006,43	1210,350
1006,59	1232,877
1006,76	1296,364
1006,92	1286,124
1007,08	1337,324
1007,25	1210,350
1007,41	1257,453
1007,57	1249,261
1007,74	1302,508
1007,90	1241,069
1008,06	1306,604
1008,23	1193,966
1008,39	1292,268
1008,55	1255,405
1008,72	1234,925
1008,88	1329,132
1009,04	1357,803
1009,21	1241,069
1009,37	1253,357
1009,53	1325,036
1009,70	1277,932
1009,86	1269,741
1010,02	1239,021
1010,19	1234,925
1010,35	1284,076
1010,51	1273,837
1010,68	1251,309
1010,84	1202,158
1011,00	1335,276
1011,17	1253,357
1011,33	1255,405
1011,49	1232,877
1011,66	1316,844
1011,82	1290,220
1011,98	1349,611
1012,14	1259,501
1012,31	1349,611
1012,47	1286,124
1012,63	1308,652
1012,80	1304,556
1012,96	1216,493
1013,12	1292,268
1013,29	1339,372
1013,45	1320,940
1013,61	1189,870
1013,77	1247,213
1013,94	1198,062
1014,10	1327,084
1014,26	1202,158
1014,43	1310,700
1014,59	1322,988
1014,75	1228,781
1014,91	1320,940
1015,08	1306,604
1015,24	1271,789
1015,40	1363,947
1015,56	1294,316
1015,73	1269,741
1015,89	1236,973
1016,05	1210,350
1016,21	1181,678
1016,38	1290,220
1016,54	1298,412
1016,70	1224,685
1016,86	1316,844
1017,03	1228,781
1017,19	1236,973
1017,35	1218,541
1017,51	1263,597
1017,68	1247,213
1017,84	1261,549
1018,00	1269,741
1018,16	1300,460
1018,33	1257,453
1018,49	1230,829
1018,65	1255,405
1018,81	1304,556
1018,97	1300,460
1019,14	1306,604
1019,30	1292,268
1019,46	1286,124
1019,62	1224,685
1019,79	1224,685
1019,95	1239,021
1020,11	1206,254
1020,27	1171,438
1020,43	1175,534
1020,60	1243,117
1020,76	1259,501
1020,92	1294,316
1021,08	1259,501
1021,24	1279,980
1021,41	1267,693
1021,57	1302,508
1021,73	1236,973
1021,89	1239,021
1022,05	1263,597
1022,21	1251,309
1022,38	1181,678
1022,54	1216,493
1022,70	1226,733
1022,86	1165,294
1023,02	1282,028
1023,19	1279,980
1023,35	1253,357
1023,51	1253,357
1023,67	1249,261
1023,83	1282,028
1023,99	1294,316
1024,16	1171,438
1024,32	1214,445
1024,48	1298,412
1024,64	1271,789
1024,80	1302,508
1024,96	1304,556
1025,12	1333,228
1025,29	1245,165
1025,45	1277,932
1025,61	1206,254
1025,77	1222,637
1025,93	1277,932
1026,09	1245,165
1026,26	1275,885
1026,42	1249,261
1026,58	1224,685
1026,74	1200,110
1026,90	1185,774
1027,06	1310,700
1027,22	1275,885
1027,38	1267,693
1027,55	1220,589
1027,71	1298,412
1027,87	1243,117
1028,03	1230,829
1028,19	1275,885
1028,35	1232,877
1028,51	1259,501
1028,67	1204,206
1028,83	1228,781
1029,00	1163,246
1029,16	1204,206
1029,32	1216,493
1029,48	1228,781
1029,64	1257,453
1029,80	1212,398
1029,96	1273,837
1030,12	1253,357
1030,28	1261,549
1030,44	1247,213
1030,61	1251,309
1030,77	1171,438
1030,93	1228,781
1031,09	1173,486
1031,25	1193,966
1031,41	1208,302
1031,57	1206,254
1031,73	1232,877
1031,89	1142,767
1032,05	1148,910
1032,21	1198,062
1032,37	1105,903
1032,53	1159,150
1032,69	1241,069
1032,86	1191,918
1033,02	1128,431
1033,18	1157,102
1033,34	1212,398
1033,50	1249,261
1033,66	1142,767
1033,82	1269,741
1033,98	1204,206
1034,14	1308,652
1034,30	1214,445
1034,46	1228,781
1034,62	1226,733
1034,78	1210,350
1034,94	1298,412
1035,10	1247,213
1035,26	1173,486
1035,42	1212,398
1035,58	1241,069
1035,74	1220,589
1035,90	1204,206
1036,06	1191,918
1036,22	1208,302
1036,38	1208,302
1036,54	1130,479
1036,70	1204,206
1036,86	1212,398
1037,02	1245,165
1037,18	1255,405
1037,34	1341,420
1037,50	1181,678
1037,66	1241,069
1037,82	1173,486
1037,98	1230,829
1038,14	1148,910
1038,30	1288,172
1038,46	1185,774
1038,62	1181,678
1038,78	1234,925
1038,94	1155,054
1039,10	1277,932
1039,26	1206,254
1039,42	1222,637
1039,58	1161,198
1039,74	1161,198
1039,90	1259,501
1040,06	1177,582
>>>>>End Spectral Data<<<<<
